File: datasets/zenodo/pvdf_ftir_phases_1um_160C.csv
wavenumber_cm_1,absorbance_norm_1um,phase,temperature_C,material,source,license
3996.29,0.000143536,alpha,160,PVDF,Mendeley Data: 10.17632/sfbpt6sjb3.1,CC BY 4.0
3994.36,0.000125432,alpha,160,PVDF,Mendeley Data: 10.17632/sfbpt6sjb3.1,CC BY 4.0
3992.43,0.000101551,alpha,160,PVDF,Mendeley Data: 10.17632/sfbpt6sjb3.1,CC BY 4.0
3990.5,6.90758e-05,alpha,160,PVDF,Mendeley Data: 10.17632/sfbpt6sjb3.1,CC BY 4.0
3988.57,1.98788e-05,alpha,160,PVDF,Mendeley Data: 10.17632/sfbpt6sjb3.1,CC BY 4.0
3986.64,-3.50374e-05,alpha,160,PVDF,Mendeley Data: 10.17632/sfbpt6sjb3.1,CC BY 4.0
3984.72,-8.39193e-05,alpha,160,PVDF,Mendeley Data: 10.17632/sfbpt6sjb3.1,CC BY 4.0
3982.79,-0.000109409,alpha,160,PVDF,Mendeley Data: 10.17632/sfbpt6sjb3.1,CC BY 4.0
3980.86,-0.000112113,alpha,160,PVDF,Mendeley Data: 10.17632/sfbpt6sjb3.1,CC BY 4.0
3978.93,-0.000103334,alpha,160,PVDF,Mendeley Data: 10.17632/sfbpt6sjb3.1,CC BY 4.0
3977,-9.34482e-05,alpha,160,PVDF,Mendeley Data: 10.17632/sfbpt6sjb3.1,CC BY 4.0
3975.07,-8.74102e-05,alpha,160,PVDF,Mendeley Data: 10.17632/sfbpt6sjb3.1,CC BY 4.0
3973.14,-7.67707e-05,alpha,160,PVDF,Mendeley Data: 10.17632/sfbpt6sjb3.1,CC BY 4.0
3971.21,-5.82773e-05,alpha,160,PVDF,Mendeley Data: 10.17632/sfbpt6sjb3.1,CC BY 4.0
3969.29,-3.56615e-05,alpha,160,PVDF,Mendeley Data: 10.17632/sfbpt6sjb3.1,CC BY 4.0
3967.36,-1.44458e-05,alpha,160,PVDF,Mendeley Data: 10.17632/sfbpt6sjb3.1,CC BY 4.0
3965.43,3.24793e-06,alpha,160,PVDF,Mendeley Data: 10.17632/sfbpt6sjb3.1,CC BY 4.0
3963.5,1.79012e-05,alpha,160,PVDF,Mendeley Data: 10.17632/sfbpt6sjb3.1,CC BY 4.0
3961.57,3.08964e-05,alpha,160,PVDF,Mendeley Data: 10.17632/sfbpt6sjb3.1,CC BY 4.0
3959.64,3.942e-05,alpha,160,PVDF,Mendeley Data: 10.17632/sfbpt6sjb3.1,CC BY 4.0
3957.71,4.3566e-05,alpha,160,PVDF,Mendeley Data: 10.17632/sfbpt6sjb3.1,CC BY 4.0
3955.78,3.32323e-05,alpha,160,PVDF,Mendeley Data: 10.17632/sfbpt6sjb3.1,CC BY 4.0
3953.86,1.21469e-05,alpha,160,PVDF,Mendeley Data: 10.17632/sfbpt6sjb3.1,CC BY 4.0
3951.93,-1.04723e-05,alpha,160,PVDF,Mendeley Data: 10.17632/sfbpt6sjb3.1,CC BY 4.0
3950,-2.29858e-05,alpha,160,PVDF,Mendeley Data: 10.17632/sfbpt6sjb3.1,CC BY 4.0
3948.07,-2.96777e-05,alpha,160,PVDF,Mendeley Data: 10.17632/sfbpt6sjb3.1,CC BY 4.0
3946.14,-3.19205e-05,alpha,160,PVDF,Mendeley Data: 10.17632/sfbpt6sjb3.1,CC BY 4.0
3944.21,-2.53591e-05,alpha,160,PVDF,Mendeley Data: 10.17632/sfbpt6sjb3.1,CC BY 4.0
3942.28,0.0,alpha,160,PVDF,Mendeley Data: 10.17632/sfbpt6sjb3.1,CC BY 4.0
3940.35,4.37392e-05,alpha,160,PVDF,Mendeley Data: 10.17632/sfbpt6sjb3.1,CC BY 4.0
3938.43,8.67383e-05,alpha,160,PVDF,Mendeley Data: 10.17632/sfbpt6sjb3.1,CC BY 4.0
3936.5,9.86731e-05,alpha,160,PVDF,Mendeley Data: 10.17632/sfbpt6sjb3.1,CC BY 4.0
3934.57,7.67239e-05,alpha,160,PVDF,Mendeley Data: 10.17632/sfbpt6sjb3.1,CC BY 4.0
3932.64,4.17846e-05,alpha,160,PVDF,Mendeley Data: 10.17632/sfbpt6sjb3.1,CC BY 4.0
3930.71,2.08023e-05,alpha,160,PVDF,Mendeley Data: 10.17632/sfbpt6sjb3.1,CC BY 4.0
3928.78,2.64421e-05,alpha,160,PVDF,Mendeley Data: 10.17632/sfbpt6sjb3.1,CC BY 4.0
3926.85,5.42659e-05,alpha,160,PVDF,Mendeley Data: 10.17632/sfbpt6sjb3.1,CC BY 4.0
3924.93,8.83118e-05,alpha,160,PVDF,Mendeley Data: 10.17632/sfbpt6sjb3.1,CC BY 4.0
3923,0.000121971,alpha,160,PVDF,Mendeley Data: 10.17632/sfbpt6sjb3.1,CC BY 4.0
3921.07,0.000158791,alpha,160,PVDF,Mendeley Data: 10.17632/sfbpt6sjb3.1,CC BY 4.0
3919.14,0.000210954,alpha,160,PVDF,Mendeley Data: 10.17632/sfbpt6sjb3.1,CC BY 4.0
3917.21,0.000294056,alpha,160,PVDF,Mendeley Data: 10.17632/sfbpt6sjb3.1,CC BY 4.0
3915.28,0.000412164,alpha,160,PVDF,Mendeley Data: 10.17632/sfbpt6sjb3.1,CC BY 4.0
3913.35,0.000537843,alpha,160,PVDF,Mendeley Data: 10.17632/sfbpt6sjb3.1,CC BY 4.0
3911.42,0.000625984,alpha,160,PVDF,Mendeley Data: 10.17632/sfbpt6sjb3.1,CC BY 4.0
3909.5,0.000647881,alpha,160,PVDF,Mendeley Data: 10.17632/sfbpt6sjb3.1,CC BY 4.0
3907.57,0.000603191,alpha,160,PVDF,Mendeley Data: 10.17632/sfbpt6sjb3.1,CC BY 4.0
3905.64,0.00052514,alpha,160,PVDF,Mendeley Data: 10.17632/sfbpt6sjb3.1,CC BY 4.0
3903.71,0.000463185,alpha,160,PVDF,Mendeley Data: 10.17632/sfbpt6sjb3.1,CC BY 4.0
3901.78,0.000459731,alpha,160,PVDF,Mendeley Data: 10.17632/sfbpt6sjb3.1,CC BY 4.0
3899.85,0.000507983,alpha,160,PVDF,Mendeley Data: 10.17632/sfbpt6sjb3.1,CC BY 4.0
3897.92,0.000560716,alpha,160,PVDF,Mendeley Data: 10.17632/sfbpt6sjb3.1,CC BY 4.0
3895.99,0.000577379,alpha,160,PVDF,Mendeley Data: 10.17632/sfbpt6sjb3.1,CC BY 4.0
3894.07,0.000547234,alpha,160,PVDF,Mendeley Data: 10.17632/sfbpt6sjb3.1,CC BY 4.0
3892.14,0.000480589,alpha,160,PVDF,Mendeley Data: 10.17632/sfbpt6sjb3.1,CC BY 4.0
3890.21,0.000387206,alpha,160,PVDF,Mendeley Data: 10.17632/sfbpt6sjb3.1,CC BY 4.0
3888.28,0.000286271,alpha,160,PVDF,Mendeley Data: 10.17632/sfbpt6sjb3.1,CC BY 4.0
3886.35,0.00019787,alpha,160,PVDF,Mendeley Data: 10.17632/sfbpt6sjb3.1,CC BY 4.0
3884.42,0.000144295,alpha,160,PVDF,Mendeley Data: 10.17632/sfbpt6sjb3.1,CC BY 4.0
3882.49,0.000133039,alpha,160,PVDF,Mendeley Data: 10.17632/sfbpt6sjb3.1,CC BY 4.0
3880.56,0.000161095,alpha,160,PVDF,Mendeley Data: 10.17632/sfbpt6sjb3.1,CC BY 4.0
3878.64,0.000200361,alpha,160,PVDF,Mendeley Data: 10.17632/sfbpt6sjb3.1,CC BY 4.0
3876.71,0.000231286,alpha,160,PVDF,Mendeley Data: 10.17632/sfbpt6sjb3.1,CC BY 4.0
3874.78,0.000235959,alpha,160,PVDF,Mendeley Data: 10.17632/sfbpt6sjb3.1,CC BY 4.0
3872.85,0.000209608,alpha,160,PVDF,Mendeley Data: 10.17632/sfbpt6sjb3.1,CC BY 4.0
3870.92,0.000176701,alpha,160,PVDF,Mendeley Data: 10.17632/sfbpt6sjb3.1,CC BY 4.0
3868.99,0.000170699,alpha,160,PVDF,Mendeley Data: 10.17632/sfbpt6sjb3.1,CC BY 4.0
3867.06,0.000208518,alpha,160,PVDF,Mendeley Data: 10.17632/sfbpt6sjb3.1,CC BY 4.0
3865.14,0.000275567,alpha,160,PVDF,Mendeley Data: 10.17632/sfbpt6sjb3.1,CC BY 4.0
3863.21,0.000340633,alpha,160,PVDF,Mendeley Data: 10.17632/sfbpt6sjb3.1,CC BY 4.0
3861.28,0.000370559,alpha,160,PVDF,Mendeley Data: 10.17632/sfbpt6sjb3.1,CC BY 4.0
3859.35,0.000356028,alpha,160,PVDF,Mendeley Data: 10.17632/sfbpt6sjb3.1,CC BY 4.0
3857.42,0.0003006,alpha,160,PVDF,Mendeley Data: 10.17632/sfbpt6sjb3.1,CC BY 4.0
3855.49,0.000225934,alpha,160,PVDF,Mendeley Data: 10.17632/sfbpt6sjb3.1,CC BY 4.0
3853.56,0.000162544,alpha,160,PVDF,Mendeley Data: 10.17632/sfbpt6sjb3.1,CC BY 4.0
3851.63,0.000144724,alpha,160,PVDF,Mendeley Data: 10.17632/sfbpt6sjb3.1,CC BY 4.0
3849.71,0.000185818,alpha,160,PVDF,Mendeley Data: 10.17632/sfbpt6sjb3.1,CC BY 4.0
3847.78,0.000236324,alpha,160,PVDF,Mendeley Data: 10.17632/sfbpt6sjb3.1,CC BY 4.0
3845.85,0.000230761,alpha,160,PVDF,Mendeley Data: 10.17632/sfbpt6sjb3.1,CC BY 4.0
3843.92,0.000141216,alpha,160,PVDF,Mendeley Data: 10.17632/sfbpt6sjb3.1,CC BY 4.0
3841.99,-8.92336e-07,alpha,160,PVDF,Mendeley Data: 10.17632/sfbpt6sjb3.1,CC BY 4.0
3840.06,-0.000132202,alpha,160,PVDF,Mendeley Data: 10.17632/sfbpt6sjb3.1,CC BY 4.0
3838.13,-0.000201434,alpha,160,PVDF,Mendeley Data: 10.17632/sfbpt6sjb3.1,CC BY 4.0
3836.2,-0.000196455,alpha,160,PVDF,Mendeley Data: 10.17632/sfbpt6sjb3.1,CC BY 4.0
3834.28,-0.000137789,alpha,160,PVDF,Mendeley Data: 10.17632/sfbpt6sjb3.1,CC BY 4.0
3832.35,-6.06072e-05,alpha,160,PVDF,Mendeley Data: 10.17632/sfbpt6sjb3.1,CC BY 4.0
3830.42,0.0,alpha,160,PVDF,Mendeley Data: 10.17632/sfbpt6sjb3.1,CC BY 4.0
3828.49,3.76079e-05,alpha,160,PVDF,Mendeley Data: 10.17632/sfbpt6sjb3.1,CC BY 4.0
3826.56,1.56377e-05,alpha,160,PVDF,Mendeley Data: 10.17632/sfbpt6sjb3.1,CC BY 4.0
3824.63,-6.44621e-05,alpha,160,PVDF,Mendeley Data: 10.17632/sfbpt6sjb3.1,CC BY 4.0
3822.7,-0.000163819,alpha,160,PVDF,Mendeley Data: 10.17632/sfbpt6sjb3.1,CC BY 4.0
3820.77,-0.000239509,alpha,160,PVDF,Mendeley Data: 10.17632/sfbpt6sjb3.1,CC BY 4.0
3818.85,-0.000244422,alpha,160,PVDF,Mendeley Data: 10.17632/sfbpt6sjb3.1,CC BY 4.0
3816.92,-0.000165906,alpha,160,PVDF,Mendeley Data: 10.17632/sfbpt6sjb3.1,CC BY 4.0
3814.99,-5.05322e-05,alpha,160,PVDF,Mendeley Data: 10.17632/sfbpt6sjb3.1,CC BY 4.0
3813.06,5.1436e-05,alpha,160,PVDF,Mendeley Data: 10.17632/sfbpt6sjb3.1,CC BY 4.0
3811.13,9.71983e-05,alpha,160,PVDF,Mendeley Data: 10.17632/sfbpt6sjb3.1,CC BY 4.0
3809.2,7.48789e-05,alpha,160,PVDF,Mendeley Data: 10.17632/sfbpt6sjb3.1,CC BY 4.0
3807.27,-8.23726e-06,alpha,160,PVDF,Mendeley Data: 10.17632/sfbpt6sjb3.1,CC BY 4.0
3805.35,-0.000122021,alpha,160,PVDF,Mendeley Data: 10.17632/sfbpt6sjb3.1,CC BY 4.0
3803.42,-0.000220041,alpha,160,PVDF,Mendeley Data: 10.17632/sfbpt6sjb3.1,CC BY 4.0
3801.49,-0.000270492,alpha,160,PVDF,Mendeley Data: 10.17632/sfbpt6sjb3.1,CC BY 4.0
3799.56,-0.000262314,alpha,160,PVDF,Mendeley Data: 10.17632/sfbpt6sjb3.1,CC BY 4.0
3797.63,-0.000189492,alpha,160,PVDF,Mendeley Data: 10.17632/sfbpt6sjb3.1,CC BY 4.0
3795.7,-7.88164e-05,alpha,160,PVDF,Mendeley Data: 10.17632/sfbpt6sjb3.1,CC BY 4.0
3793.77,2.54273e-05,alpha,160,PVDF,Mendeley Data: 10.17632/sfbpt6sjb3.1,CC BY 4.0
3791.84,9.61754e-05,alpha,160,PVDF,Mendeley Data: 10.17632/sfbpt6sjb3.1,CC BY 4.0
3789.92,0.000117478,alpha,160,PVDF,Mendeley Data: 10.17632/sfbpt6sjb3.1,CC BY 4.0
3787.99,9.40868e-05,alpha,160,PVDF,Mendeley Data: 10.17632/sfbpt6sjb3.1,CC BY 4.0
3786.06,4.78738e-05,alpha,160,PVDF,Mendeley Data: 10.17632/sfbpt6sjb3.1,CC BY 4.0
3784.13,4.56126e-07,alpha,160,PVDF,Mendeley Data: 10.17632/sfbpt6sjb3.1,CC BY 4.0
3782.2,-2.53482e-05,alpha,160,PVDF,Mendeley Data: 10.17632/sfbpt6sjb3.1,CC BY 4.0
3780.27,-2.63936e-05,alpha,160,PVDF,Mendeley Data: 10.17632/sfbpt6sjb3.1,CC BY 4.0
3778.34,-1.0577e-05,alpha,160,PVDF,Mendeley Data: 10.17632/sfbpt6sjb3.1,CC BY 4.0
3776.41,6.05201e-06,alpha,160,PVDF,Mendeley Data: 10.17632/sfbpt6sjb3.1,CC BY 4.0
3774.49,0.0,alpha,160,PVDF,Mendeley Data: 10.17632/sfbpt6sjb3.1,CC BY 4.0
3772.56,-5.05148e-05,alpha,160,PVDF,Mendeley Data: 10.17632/sfbpt6sjb3.1,CC BY 4.0
3770.63,-0.000134217,alpha,160,PVDF,Mendeley Data: 10.17632/sfbpt6sjb3.1,CC BY 4.0
3768.7,-0.000224158,alpha,160,PVDF,Mendeley Data: 10.17632/sfbpt6sjb3.1,CC BY 4.0
3766.77,-0.000287959,alpha,160,PVDF,Mendeley Data: 10.17632/sfbpt6sjb3.1,CC BY 4.0
3764.84,-0.000325468,alpha,160,PVDF,Mendeley Data: 10.17632/sfbpt6sjb3.1,CC BY 4.0
3762.91,-0.000359077,alpha,160,PVDF,Mendeley Data: 10.17632/sfbpt6sjb3.1,CC BY 4.0
3760.98,-0.000406986,alpha,160,PVDF,Mendeley Data: 10.17632/sfbpt6sjb3.1,CC BY 4.0
3759.06,-0.000476194,alpha,160,PVDF,Mendeley Data: 10.17632/sfbpt6sjb3.1,CC BY 4.0
3757.13,-0.000570032,alpha,160,PVDF,Mendeley Data: 10.17632/sfbpt6sjb3.1,CC BY 4.0
3755.2,-0.00068701,alpha,160,PVDF,Mendeley Data: 10.17632/sfbpt6sjb3.1,CC BY 4.0
3753.27,-0.000829479,alpha,160,PVDF,Mendeley Data: 10.17632/sfbpt6sjb3.1,CC BY 4.0
3751.34,-0.000977681,alpha,160,PVDF,Mendeley Data: 10.17632/sfbpt6sjb3.1,CC BY 4.0
3749.41,-0.00108869,alpha,160,PVDF,Mendeley Data: 10.17632/sfbpt6sjb3.1,CC BY 4.0
3747.48,-0.00111456,alpha,160,PVDF,Mendeley Data: 10.17632/sfbpt6sjb3.1,CC BY 4.0
3745.56,-0.00105064,alpha,160,PVDF,Mendeley Data: 10.17632/sfbpt6sjb3.1,CC BY 4.0
3743.63,-0.000942009,alpha,160,PVDF,Mendeley Data: 10.17632/sfbpt6sjb3.1,CC BY 4.0
3741.7,-0.000826411,alpha,160,PVDF,Mendeley Data: 10.17632/sfbpt6sjb3.1,CC BY 4.0
3739.77,-0.000743475,alpha,160,PVDF,Mendeley Data: 10.17632/sfbpt6sjb3.1,CC BY 4.0
3737.84,-0.000703043,alpha,160,PVDF,Mendeley Data: 10.17632/sfbpt6sjb3.1,CC BY 4.0
3735.91,-0.00067586,alpha,160,PVDF,Mendeley Data: 10.17632/sfbpt6sjb3.1,CC BY 4.0
3733.98,-0.000605879,alpha,160,PVDF,Mendeley Data: 10.17632/sfbpt6sjb3.1,CC BY 4.0
3732.05,-0.000471713,alpha,160,PVDF,Mendeley Data: 10.17632/sfbpt6sjb3.1,CC BY 4.0
3730.13,-0.000316907,alpha,160,PVDF,Mendeley Data: 10.17632/sfbpt6sjb3.1,CC BY 4.0
3728.2,-0.000194857,alpha,160,PVDF,Mendeley Data: 10.17632/sfbpt6sjb3.1,CC BY 4.0
3726.27,-0.000124299,alpha,160,PVDF,Mendeley Data: 10.17632/sfbpt6sjb3.1,CC BY 4.0
3724.34,-9.64901e-05,alpha,160,PVDF,Mendeley Data: 10.17632/sfbpt6sjb3.1,CC BY 4.0
3722.41,-8.93207e-05,alpha,160,PVDF,Mendeley Data: 10.17632/sfbpt6sjb3.1,CC BY 4.0
3720.48,-0.000101517,alpha,160,PVDF,Mendeley Data: 10.17632/sfbpt6sjb3.1,CC BY 4.0
3718.55,-0.000135194,alpha,160,PVDF,Mendeley Data: 10.17632/sfbpt6sjb3.1,CC BY 4.0
3716.62,-0.000198678,alpha,160,PVDF,Mendeley Data: 10.17632/sfbpt6sjb3.1,CC BY 4.0
3714.7,-0.000259346,alpha,160,PVDF,Mendeley Data: 10.17632/sfbpt6sjb3.1,CC BY 4.0
3712.77,-0.000291332,alpha,160,PVDF,Mendeley Data: 10.17632/sfbpt6sjb3.1,CC BY 4.0
3710.84,-0.000263354,alpha,160,PVDF,Mendeley Data: 10.17632/sfbpt6sjb3.1,CC BY 4.0
3708.91,-0.000167901,alpha,160,PVDF,Mendeley Data: 10.17632/sfbpt6sjb3.1,CC BY 4.0
3706.98,-3.54154e-05,alpha,160,PVDF,Mendeley Data: 10.17632/sfbpt6sjb3.1,CC BY 4.0
3705.05,9.07036e-05,alpha,160,PVDF,Mendeley Data: 10.17632/sfbpt6sjb3.1,CC BY 4.0
3703.12,0.000175845,alpha,160,PVDF,Mendeley Data: 10.17632/sfbpt6sjb3.1,CC BY 4.0
3701.19,0.000217216,alpha,160,PVDF,Mendeley Data: 10.17632/sfbpt6sjb3.1,CC BY 4.0
3699.27,0.000229117,alpha,160,PVDF,Mendeley Data: 10.17632/sfbpt6sjb3.1,CC BY 4.0
3697.34,0.000205305,alpha,160,PVDF,Mendeley Data: 10.17632/sfbpt6sjb3.1,CC BY 4.0
3695.41,0.000130923,alpha,160,PVDF,Mendeley Data: 10.17632/sfbpt6sjb3.1,CC BY 4.0
3693.48,1.76563e-05,alpha,160,PVDF,Mendeley Data: 10.17632/sfbpt6sjb3.1,CC BY 4.0
3691.55,-9.2785e-05,alpha,160,PVDF,Mendeley Data: 10.17632/sfbpt6sjb3.1,CC BY 4.0
3689.62,-0.000144952,alpha,160,PVDF,Mendeley Data: 10.17632/sfbpt6sjb3.1,CC BY 4.0
3687.69,-0.000112916,alpha,160,PVDF,Mendeley Data: 10.17632/sfbpt6sjb3.1,CC BY 4.0
3685.77,-2.34154e-05,alpha,160,PVDF,Mendeley Data: 10.17632/sfbpt6sjb3.1,CC BY 4.0
3683.84,6.20149e-05,alpha,160,PVDF,Mendeley Data: 10.17632/sfbpt6sjb3.1,CC BY 4.0
3681.91,8.86468e-05,alpha,160,PVDF,Mendeley Data: 10.17632/sfbpt6sjb3.1,CC BY 4.0
3679.98,3.04128e-05,alpha,160,PVDF,Mendeley Data: 10.17632/sfbpt6sjb3.1,CC BY 4.0
3678.05,-8.91331e-05,alpha,160,PVDF,Mendeley Data: 10.17632/sfbpt6sjb3.1,CC BY 4.0
3676.12,-0.000217497,alpha,160,PVDF,Mendeley Data: 10.17632/sfbpt6sjb3.1,CC BY 4.0
3674.19,-0.000291291,alpha,160,PVDF,Mendeley Data: 10.17632/sfbpt6sjb3.1,CC BY 4.0
3672.26,-0.00025902,alpha,160,PVDF,Mendeley Data: 10.17632/sfbpt6sjb3.1,CC BY 4.0
3670.34,-0.0001155,alpha,160,PVDF,Mendeley Data: 10.17632/sfbpt6sjb3.1,CC BY 4.0
3668.41,1.64467e-05,alpha,160,PVDF,Mendeley Data: 10.17632/sfbpt6sjb3.1,CC BY 4.0
3666.48,0.000163963,alpha,160,PVDF,Mendeley Data: 10.17632/sfbpt6sjb3.1,CC BY 4.0
3664.55,0.000290379,alpha,160,PVDF,Mendeley Data: 10.17632/sfbpt6sjb3.1,CC BY 4.0
3662.62,0.000359541,alpha,160,PVDF,Mendeley Data: 10.17632/sfbpt6sjb3.1,CC BY 4.0
3660.69,0.000334462,alpha,160,PVDF,Mendeley Data: 10.17632/sfbpt6sjb3.1,CC BY 4.0
3658.76,0.000243943,alpha,160,PVDF,Mendeley Data: 10.17632/sfbpt6sjb3.1,CC BY 4.0
3656.83,9.78325e-05,alpha,160,PVDF,Mendeley Data: 10.17632/sfbpt6sjb3.1,CC BY 4.0
3654.91,-9.31603e-05,alpha,160,PVDF,Mendeley Data: 10.17632/sfbpt6sjb3.1,CC BY 4.0
3652.98,-0.00029954,alpha,160,PVDF,Mendeley Data: 10.17632/sfbpt6sjb3.1,CC BY 4.0
3651.05,-0.000476823,alpha,160,PVDF,Mendeley Data: 10.17632/sfbpt6sjb3.1,CC BY 4.0
3649.12,-0.000564815,alpha,160,PVDF,Mendeley Data: 10.17632/sfbpt6sjb3.1,CC BY 4.0
3647.19,-0.000511473,alpha,160,PVDF,Mendeley Data: 10.17632/sfbpt6sjb3.1,CC BY 4.0
3645.26,-0.000339762,alpha,160,PVDF,Mendeley Data: 10.17632/sfbpt6sjb3.1,CC BY 4.0
3643.33,-0.00012489,alpha,160,PVDF,Mendeley Data: 10.17632/sfbpt6sjb3.1,CC BY 4.0
3641.4,5.72226e-05,alpha,160,PVDF,Mendeley Data: 10.17632/sfbpt6sjb3.1,CC BY 4.0
3639.48,0.000168992,alpha,160,PVDF,Mendeley Data: 10.17632/sfbpt6sjb3.1,CC BY 4.0
3637.55,0.000201521,alpha,160,PVDF,Mendeley Data: 10.17632/sfbpt6sjb3.1,CC BY 4.0
3635.62,0.000172087,alpha,160,PVDF,Mendeley Data: 10.17632/sfbpt6sjb3.1,CC BY 4.0
3633.69,0.00010301,alpha,160,PVDF,Mendeley Data: 10.17632/sfbpt6sjb3.1,CC BY 4.0
3631.76,3.37259e-05,alpha,160,PVDF,Mendeley Data: 10.17632/sfbpt6sjb3.1,CC BY 4.0
3629.83,-1.3852e-06,alpha,160,PVDF,Mendeley Data: 10.17632/sfbpt6sjb3.1,CC BY 4.0
3627.9,1.43513e-05,alpha,160,PVDF,Mendeley Data: 10.17632/sfbpt6sjb3.1,CC BY 4.0
3625.98,6.38426e-05,alpha,160,PVDF,Mendeley Data: 10.17632/sfbpt6sjb3.1,CC BY 4.0
3624.05,0.000114824,alpha,160,PVDF,Mendeley Data: 10.17632/sfbpt6sjb3.1,CC BY 4.0
3622.12,0.000115465,alpha,160,PVDF,Mendeley Data: 10.17632/sfbpt6sjb3.1,CC BY 4.0
3620.19,5.47534e-05,alpha,160,PVDF,Mendeley Data: 10.17632/sfbpt6sjb3.1,CC BY 4.0
3618.26,-4.13221e-05,alpha,160,PVDF,Mendeley Data: 10.17632/sfbpt6sjb3.1,CC BY 4.0
3616.33,-0.000124069,alpha,160,PVDF,Mendeley Data: 10.17632/sfbpt6sjb3.1,CC BY 4.0
3614.4,-0.00015251,alpha,160,PVDF,Mendeley Data: 10.17632/sfbpt6sjb3.1,CC BY 4.0
3612.47,-0.000126225,alpha,160,PVDF,Mendeley Data: 10.17632/sfbpt6sjb3.1,CC BY 4.0
3610.55,-4.58326e-05,alpha,160,PVDF,Mendeley Data: 10.17632/sfbpt6sjb3.1,CC BY 4.0
3608.62,5.83539e-05,alpha,160,PVDF,Mendeley Data: 10.17632/sfbpt6sjb3.1,CC BY 4.0
3606.69,0.000169591,alpha,160,PVDF,Mendeley Data: 10.17632/sfbpt6sjb3.1,CC BY 4.0
3604.76,0.000234027,alpha,160,PVDF,Mendeley Data: 10.17632/sfbpt6sjb3.1,CC BY 4.0
3602.83,0.000264521,alpha,160,PVDF,Mendeley Data: 10.17632/sfbpt6sjb3.1,CC BY 4.0
3600.9,0.000249418,alpha,160,PVDF,Mendeley Data: 10.17632/sfbpt6sjb3.1,CC BY 4.0
3598.97,0.00020602,alpha,160,PVDF,Mendeley Data: 10.17632/sfbpt6sjb3.1,CC BY 4.0
3597.04,0.000146781,alpha,160,PVDF,Mendeley Data: 10.17632/sfbpt6sjb3.1,CC BY 4.0
3595.12,7.17188e-05,alpha,160,PVDF,Mendeley Data: 10.17632/sfbpt6sjb3.1,CC BY 4.0
3593.19,-2.66559e-05,alpha,160,PVDF,Mendeley Data: 10.17632/sfbpt6sjb3.1,CC BY 4.0
3591.26,-0.000149432,alpha,160,PVDF,Mendeley Data: 10.17632/sfbpt6sjb3.1,CC BY 4.0
3589.33,-0.000261857,alpha,160,PVDF,Mendeley Data: 10.17632/sfbpt6sjb3.1,CC BY 4.0
3587.4,-0.000323296,alpha,160,PVDF,Mendeley Data: 10.17632/sfbpt6sjb3.1,CC BY 4.0
3585.47,-0.000313345,alpha,160,PVDF,Mendeley Data: 10.17632/sfbpt6sjb3.1,CC BY 4.0
3583.54,-0.000252235,alpha,160,PVDF,Mendeley Data: 10.17632/sfbpt6sjb3.1,CC BY 4.0
3581.61,-0.000177017,alpha,160,PVDF,Mendeley Data: 10.17632/sfbpt6sjb3.1,CC BY 4.0
3579.69,-0.000120157,alpha,160,PVDF,Mendeley Data: 10.17632/sfbpt6sjb3.1,CC BY 4.0
3577.76,-0.000100203,alpha,160,PVDF,Mendeley Data: 10.17632/sfbpt6sjb3.1,CC BY 4.0
3575.83,-0.000119765,alpha,160,PVDF,Mendeley Data: 10.17632/sfbpt6sjb3.1,CC BY 4.0
3573.9,-0.000185771,alpha,160,PVDF,Mendeley Data: 10.17632/sfbpt6sjb3.1,CC BY 4.0
3571.97,-0.000287249,alpha,160,PVDF,Mendeley Data: 10.17632/sfbpt6sjb3.1,CC BY 4.0
3570.04,-0.000397835,alpha,160,PVDF,Mendeley Data: 10.17632/sfbpt6sjb3.1,CC BY 4.0
3568.11,-0.000470294,alpha,160,PVDF,Mendeley Data: 10.17632/sfbpt6sjb3.1,CC BY 4.0
3566.19,-0.00046143,alpha,160,PVDF,Mendeley Data: 10.17632/sfbpt6sjb3.1,CC BY 4.0
3564.26,-0.000371982,alpha,160,PVDF,Mendeley Data: 10.17632/sfbpt6sjb3.1,CC BY 4.0
3562.33,-0.000248568,alpha,160,PVDF,Mendeley Data: 10.17632/sfbpt6sjb3.1,CC BY 4.0
3560.399,-0.000135557,alpha,160,PVDF,Mendeley Data: 10.17632/sfbpt6sjb3.1,CC BY 4.0
3558.47,-6.10785e-05,alpha,160,PVDF,Mendeley Data: 10.17632/sfbpt6sjb3.1,CC BY 4.0
3556.54,-1.99601e-05,alpha,160,PVDF,Mendeley Data: 10.17632/sfbpt6sjb3.1,CC BY 4.0
3554.61,-6.15799e-06,alpha,160,PVDF,Mendeley Data: 10.17632/sfbpt6sjb3.1,CC BY 4.0
3552.68,-4.12425e-06,alpha,160,PVDF,Mendeley Data: 10.17632/sfbpt6sjb3.1,CC BY 4.0
3550.76,0.0,alpha,160,PVDF,Mendeley Data: 10.17632/sfbpt6sjb3.1,CC BY 4.0
3548.83,-6.22392e-05,alpha,160,PVDF,Mendeley Data: 10.17632/sfbpt6sjb3.1,CC BY 4.0
3546.9,-9.49327e-05,alpha,160,PVDF,Mendeley Data: 10.17632/sfbpt6sjb3.1,CC BY 4.0
3544.97,-9.70167e-05,alpha,160,PVDF,Mendeley Data: 10.17632/sfbpt6sjb3.1,CC BY 4.0
3543.04,-7.56885e-05,alpha,160,PVDF,Mendeley Data: 10.17632/sfbpt6sjb3.1,CC BY 4.0
3541.11,-5.65591e-05,alpha,160,PVDF,Mendeley Data: 10.17632/sfbpt6sjb3.1,CC BY 4.0
3539.18,-5.25318e-05,alpha,160,PVDF,Mendeley Data: 10.17632/sfbpt6sjb3.1,CC BY 4.0
3537.25,-7.2609e-05,alpha,160,PVDF,Mendeley Data: 10.17632/sfbpt6sjb3.1,CC BY 4.0
3535.33,-0.000108066,alpha,160,PVDF,Mendeley Data: 10.17632/sfbpt6sjb3.1,CC BY 4.0
3533.4,-0.000157122,alpha,160,PVDF,Mendeley Data: 10.17632/sfbpt6sjb3.1,CC BY 4.0
3531.47,-0.00020858,alpha,160,PVDF,Mendeley Data: 10.17632/sfbpt6sjb3.1,CC BY 4.0
3529.54,-0.000249248,alpha,160,PVDF,Mendeley Data: 10.17632/sfbpt6sjb3.1,CC BY 4.0
3527.61,-0.000263601,alpha,160,PVDF,Mendeley Data: 10.17632/sfbpt6sjb3.1,CC BY 4.0
3525.68,-0.00025324,alpha,160,PVDF,Mendeley Data: 10.17632/sfbpt6sjb3.1,CC BY 4.0
3523.75,-0.000223125,alpha,160,PVDF,Mendeley Data: 10.17632/sfbpt6sjb3.1,CC BY 4.0
3521.82,-0.000183564,alpha,160,PVDF,Mendeley Data: 10.17632/sfbpt6sjb3.1,CC BY 4.0
3519.9,-0.000145611,alpha,160,PVDF,Mendeley Data: 10.17632/sfbpt6sjb3.1,CC BY 4.0
3517.97,-0.000124421,alpha,160,PVDF,Mendeley Data: 10.17632/sfbpt6sjb3.1,CC BY 4.0
3516.04,-0.000119506,alpha,160,PVDF,Mendeley Data: 10.17632/sfbpt6sjb3.1,CC BY 4.0
3514.11,-0.000136022,alpha,160,PVDF,Mendeley Data: 10.17632/sfbpt6sjb3.1,CC BY 4.0
3512.18,-0.000161805,alpha,160,PVDF,Mendeley Data: 10.17632/sfbpt6sjb3.1,CC BY 4.0
3510.25,-0.000189367,alpha,160,PVDF,Mendeley Data: 10.17632/sfbpt6sjb3.1,CC BY 4.0
3508.32,-0.000208077,alpha,160,PVDF,Mendeley Data: 10.17632/sfbpt6sjb3.1,CC BY 4.0
3506.4,-0.000207302,alpha,160,PVDF,Mendeley Data: 10.17632/sfbpt6sjb3.1,CC BY 4.0
3504.47,-0.000186705,alpha,160,PVDF,Mendeley Data: 10.17632/sfbpt6sjb3.1,CC BY 4.0
3502.54,-0.000149972,alpha,160,PVDF,Mendeley Data: 10.17632/sfbpt6sjb3.1,CC BY 4.0
3500.61,-0.000109665,alpha,160,PVDF,Mendeley Data: 10.17632/sfbpt6sjb3.1,CC BY 4.0
3498.68,-6.62619e-05,alpha,160,PVDF,Mendeley Data: 10.17632/sfbpt6sjb3.1,CC BY 4.0
3496.75,-2.79279e-05,alpha,160,PVDF,Mendeley Data: 10.17632/sfbpt6sjb3.1,CC BY 4.0
3494.82,0.0,alpha,160,PVDF,Mendeley Data: 10.17632/sfbpt6sjb3.1,CC BY 4.0
3492.89,-1.67884e-05,alpha,160,PVDF,Mendeley Data: 10.17632/sfbpt6sjb3.1,CC BY 4.0
3490.97,-4.14768e-05,alpha,160,PVDF,Mendeley Data: 10.17632/sfbpt6sjb3.1,CC BY 4.0
3489.04,-8.09929e-05,alpha,160,PVDF,Mendeley Data: 10.17632/sfbpt6sjb3.1,CC BY 4.0
3487.11,-0.000128072,alpha,160,PVDF,Mendeley Data: 10.17632/sfbpt6sjb3.1,CC BY 4.0
3485.18,-0.000168526,alpha,160,PVDF,Mendeley Data: 10.17632/sfbpt6sjb3.1,CC BY 4.0
3483.25,-0.000190513,alpha,160,PVDF,Mendeley Data: 10.17632/sfbpt6sjb3.1,CC BY 4.0
3481.32,-0.000193481,alpha,160,PVDF,Mendeley Data: 10.17632/sfbpt6sjb3.1,CC BY 4.0
3479.39,-0.000183718,alpha,160,PVDF,Mendeley Data: 10.17632/sfbpt6sjb3.1,CC BY 4.0
3477.46,-0.000167273,alpha,160,PVDF,Mendeley Data: 10.17632/sfbpt6sjb3.1,CC BY 4.0
3475.54,-0.000147132,alpha,160,PVDF,Mendeley Data: 10.17632/sfbpt6sjb3.1,CC BY 4.0
3473.61,-0.00012289,alpha,160,PVDF,Mendeley Data: 10.17632/sfbpt6sjb3.1,CC BY 4.0
3471.68,-9.34066e-05,alpha,160,PVDF,Mendeley Data: 10.17632/sfbpt6sjb3.1,CC BY 4.0
3469.75,-6.43139e-05,alpha,160,PVDF,Mendeley Data: 10.17632/sfbpt6sjb3.1,CC BY 4.0
3467.82,-5.15738e-05,alpha,160,PVDF,Mendeley Data: 10.17632/sfbpt6sjb3.1,CC BY 4.0
3465.89,-5.13306e-05,alpha,160,PVDF,Mendeley Data: 10.17632/sfbpt6sjb3.1,CC BY 4.0
3463.96,-5.89908e-05,alpha,160,PVDF,Mendeley Data: 10.17632/sfbpt6sjb3.1,CC BY 4.0
3462.03,-6.54427e-05,alpha,160,PVDF,Mendeley Data: 10.17632/sfbpt6sjb3.1,CC BY 4.0
3460.11,-6.27078e-05,alpha,160,PVDF,Mendeley Data: 10.17632/sfbpt6sjb3.1,CC BY 4.0
3458.18,-5.4252e-05,alpha,160,PVDF,Mendeley Data: 10.17632/sfbpt6sjb3.1,CC BY 4.0
3456.25,-5.04671e-05,alpha,160,PVDF,Mendeley Data: 10.17632/sfbpt6sjb3.1,CC BY 4.0
3454.32,-5.36875e-05,alpha,160,PVDF,Mendeley Data: 10.17632/sfbpt6sjb3.1,CC BY 4.0
3452.39,-6.44789e-05,alpha,160,PVDF,Mendeley Data: 10.17632/sfbpt6sjb3.1,CC BY 4.0
3450.46,-7.9945e-05,alpha,160,PVDF,Mendeley Data: 10.17632/sfbpt6sjb3.1,CC BY 4.0
3448.53,-8.96936e-05,alpha,160,PVDF,Mendeley Data: 10.17632/sfbpt6sjb3.1,CC BY 4.0
3446.61,-9.13867e-05,alpha,160,PVDF,Mendeley Data: 10.17632/sfbpt6sjb3.1,CC BY 4.0
3444.68,-8.18765e-05,alpha,160,PVDF,Mendeley Data: 10.17632/sfbpt6sjb3.1,CC BY 4.0
3442.75,-6.23659e-05,alpha,160,PVDF,Mendeley Data: 10.17632/sfbpt6sjb3.1,CC BY 4.0
3440.82,-3.31679e-05,alpha,160,PVDF,Mendeley Data: 10.17632/sfbpt6sjb3.1,CC BY 4.0
3438.89,0.0,alpha,160,PVDF,Mendeley Data: 10.17632/sfbpt6sjb3.1,CC BY 4.0
3436.96,2.60731e-05,alpha,160,PVDF,Mendeley Data: 10.17632/sfbpt6sjb3.1,CC BY 4.0
3435.03,3.83392e-05,alpha,160,PVDF,Mendeley Data: 10.17632/sfbpt6sjb3.1,CC BY 4.0
3433.1,3.59893e-05,alpha,160,PVDF,Mendeley Data: 10.17632/sfbpt6sjb3.1,CC BY 4.0
3431.18,2.50807e-05,alpha,160,PVDF,Mendeley Data: 10.17632/sfbpt6sjb3.1,CC BY 4.0
3429.25,8.76598e-06,alpha,160,PVDF,Mendeley Data: 10.17632/sfbpt6sjb3.1,CC BY 4.0
3427.318,-1.13319e-05,alpha,160,PVDF,Mendeley Data: 10.17632/sfbpt6sjb3.1,CC BY 4.0
3425.39,-3.29505e-05,alpha,160,PVDF,Mendeley Data: 10.17632/sfbpt6sjb3.1,CC BY 4.0
3423.46,-5.78618e-05,alpha,160,PVDF,Mendeley Data: 10.17632/sfbpt6sjb3.1,CC BY 4.0
3421.53,-7.82522e-05,alpha,160,PVDF,Mendeley Data: 10.17632/sfbpt6sjb3.1,CC BY 4.0
3419.6,-8.65528e-05,alpha,160,PVDF,Mendeley Data: 10.17632/sfbpt6sjb3.1,CC BY 4.0
3417.67,-8.67951e-05,alpha,160,PVDF,Mendeley Data: 10.17632/sfbpt6sjb3.1,CC BY 4.0
3415.75,-8.50232e-05,alpha,160,PVDF,Mendeley Data: 10.17632/sfbpt6sjb3.1,CC BY 4.0
3413.82,-8.21228e-05,alpha,160,PVDF,Mendeley Data: 10.17632/sfbpt6sjb3.1,CC BY 4.0
3411.89,-8.30088e-05,alpha,160,PVDF,Mendeley Data: 10.17632/sfbpt6sjb3.1,CC BY 4.0
3409.96,-8.33305e-05,alpha,160,PVDF,Mendeley Data: 10.17632/sfbpt6sjb3.1,CC BY 4.0
3408.03,-8.05092e-05,alpha,160,PVDF,Mendeley Data: 10.17632/sfbpt6sjb3.1,CC BY 4.0
3406.1,-7.05942e-05,alpha,160,PVDF,Mendeley Data: 10.17632/sfbpt6sjb3.1,CC BY 4.0
3404.17,-4.60848e-05,alpha,160,PVDF,Mendeley Data: 10.17632/sfbpt6sjb3.1,CC BY 4.0
3402.24,-1.32589e-05,alpha,160,PVDF,Mendeley Data: 10.17632/sfbpt6sjb3.1,CC BY 4.0
3400.32,1.76418e-05,alpha,160,PVDF,Mendeley Data: 10.17632/sfbpt6sjb3.1,CC BY 4.0
3398.39,4.43506e-05,alpha,160,PVDF,Mendeley Data: 10.17632/sfbpt6sjb3.1,CC BY 4.0
3396.46,6.35618e-05,alpha,160,PVDF,Mendeley Data: 10.17632/sfbpt6sjb3.1,CC BY 4.0
3394.53,8.38344e-05,alpha,160,PVDF,Mendeley Data: 10.17632/sfbpt6sjb3.1,CC BY 4.0
3392.6,0.000106944,alpha,160,PVDF,Mendeley Data: 10.17632/sfbpt6sjb3.1,CC BY 4.0
3390.67,0.00012521,alpha,160,PVDF,Mendeley Data: 10.17632/sfbpt6sjb3.1,CC BY 4.0
3388.74,0.000129175,alpha,160,PVDF,Mendeley Data: 10.17632/sfbpt6sjb3.1,CC BY 4.0
3386.82,0.000109552,alpha,160,PVDF,Mendeley Data: 10.17632/sfbpt6sjb3.1,CC BY 4.0
3384.89,6.1594e-05,alpha,160,PVDF,Mendeley Data: 10.17632/sfbpt6sjb3.1,CC BY 4.0
3382.96,0.0,alpha,160,PVDF,Mendeley Data: 10.17632/sfbpt6sjb3.1,CC BY 4.0
3381.03,-2.56652e-05,alpha,160,PVDF,Mendeley Data: 10.17632/sfbpt6sjb3.1,CC BY 4.0
3379.1,-3.66373e-05,alpha,160,PVDF,Mendeley Data: 10.17632/sfbpt6sjb3.1,CC BY 4.0
3377.17,-3.23612e-05,alpha,160,PVDF,Mendeley Data: 10.17632/sfbpt6sjb3.1,CC BY 4.0
3375.24,-1.55027e-05,alpha,160,PVDF,Mendeley Data: 10.17632/sfbpt6sjb3.1,CC BY 4.0
3373.31,3.10349e-07,alpha,160,PVDF,Mendeley Data: 10.17632/sfbpt6sjb3.1,CC BY 4.0
3371.39,1.52628e-06,alpha,160,PVDF,Mendeley Data: 10.17632/sfbpt6sjb3.1,CC BY 4.0
3369.46,-1.31567e-05,alpha,160,PVDF,Mendeley Data: 10.17632/sfbpt6sjb3.1,CC BY 4.0
3367.53,-3.72051e-05,alpha,160,PVDF,Mendeley Data: 10.17632/sfbpt6sjb3.1,CC BY 4.0
3365.6,-6.10056e-05,alpha,160,PVDF,Mendeley Data: 10.17632/sfbpt6sjb3.1,CC BY 4.0
3363.67,-7.56796e-05,alpha,160,PVDF,Mendeley Data: 10.17632/sfbpt6sjb3.1,CC BY 4.0
3361.74,-7.99464e-05,alpha,160,PVDF,Mendeley Data: 10.17632/sfbpt6sjb3.1,CC BY 4.0
3359.81,-7.33309e-05,alpha,160,PVDF,Mendeley Data: 10.17632/sfbpt6sjb3.1,CC BY 4.0
3357.88,-5.67219e-05,alpha,160,PVDF,Mendeley Data: 10.17632/sfbpt6sjb3.1,CC BY 4.0
3355.96,-3.81798e-05,alpha,160,PVDF,Mendeley Data: 10.17632/sfbpt6sjb3.1,CC BY 4.0
3354.03,-2.11674e-05,alpha,160,PVDF,Mendeley Data: 10.17632/sfbpt6sjb3.1,CC BY 4.0
3352.1,-1.14091e-05,alpha,160,PVDF,Mendeley Data: 10.17632/sfbpt6sjb3.1,CC BY 4.0
3350.17,-4.79607e-06,alpha,160,PVDF,Mendeley Data: 10.17632/sfbpt6sjb3.1,CC BY 4.0
3348.24,6.87115e-07,alpha,160,PVDF,Mendeley Data: 10.17632/sfbpt6sjb3.1,CC BY 4.0
3346.31,1.18982e-05,alpha,160,PVDF,Mendeley Data: 10.17632/sfbpt6sjb3.1,CC BY 4.0
3344.38,2.35997e-05,alpha,160,PVDF,Mendeley Data: 10.17632/sfbpt6sjb3.1,CC BY 4.0
3342.45,2.62741e-05,alpha,160,PVDF,Mendeley Data: 10.17632/sfbpt6sjb3.1,CC BY 4.0
3340.53,1.94278e-05,alpha,160,PVDF,Mendeley Data: 10.17632/sfbpt6sjb3.1,CC BY 4.0
3338.6,8.30022e-06,alpha,160,PVDF,Mendeley Data: 10.17632/sfbpt6sjb3.1,CC BY 4.0
3336.67,1.53047e-07,alpha,160,PVDF,Mendeley Data: 10.17632/sfbpt6sjb3.1,CC BY 4.0
3334.74,4.75253e-06,alpha,160,PVDF,Mendeley Data: 10.17632/sfbpt6sjb3.1,CC BY 4.0
3332.81,1.45172e-05,alpha,160,PVDF,Mendeley Data: 10.17632/sfbpt6sjb3.1,CC BY 4.0
3330.88,2.13001e-05,alpha,160,PVDF,Mendeley Data: 10.17632/sfbpt6sjb3.1,CC BY 4.0
3328.95,1.35581e-05,alpha,160,PVDF,Mendeley Data: 10.17632/sfbpt6sjb3.1,CC BY 4.0
3327.03,0.0,alpha,160,PVDF,Mendeley Data: 10.17632/sfbpt6sjb3.1,CC BY 4.0
3325.1,1.04934e-05,alpha,160,PVDF,Mendeley Data: 10.17632/sfbpt6sjb3.1,CC BY 4.0
3323.17,3.05888e-05,alpha,160,PVDF,Mendeley Data: 10.17632/sfbpt6sjb3.1,CC BY 4.0
3321.24,4.93042e-05,alpha,160,PVDF,Mendeley Data: 10.17632/sfbpt6sjb3.1,CC BY 4.0
3319.31,6.8333e-05,alpha,160,PVDF,Mendeley Data: 10.17632/sfbpt6sjb3.1,CC BY 4.0
3317.38,8.29986e-05,alpha,160,PVDF,Mendeley Data: 10.17632/sfbpt6sjb3.1,CC BY 4.0
3315.45,9.67004e-05,alpha,160,PVDF,Mendeley Data: 10.17632/sfbpt6sjb3.1,CC BY 4.0
3313.52,0.000108239,alpha,160,PVDF,Mendeley Data: 10.17632/sfbpt6sjb3.1,CC BY 4.0
3311.6,0.000118183,alpha,160,PVDF,Mendeley Data: 10.17632/sfbpt6sjb3.1,CC BY 4.0
3309.67,0.000119666,alpha,160,PVDF,Mendeley Data: 10.17632/sfbpt6sjb3.1,CC BY 4.0
3307.74,0.000118562,alpha,160,PVDF,Mendeley Data: 10.17632/sfbpt6sjb3.1,CC BY 4.0
3305.81,0.000119621,alpha,160,PVDF,Mendeley Data: 10.17632/sfbpt6sjb3.1,CC BY 4.0
3303.88,0.000119128,alpha,160,PVDF,Mendeley Data: 10.17632/sfbpt6sjb3.1,CC BY 4.0
3301.95,0.000117575,alpha,160,PVDF,Mendeley Data: 10.17632/sfbpt6sjb3.1,CC BY 4.0
3300.02,0.000113118,alpha,160,PVDF,Mendeley Data: 10.17632/sfbpt6sjb3.1,CC BY 4.0
3298.09,0.000109401,alpha,160,PVDF,Mendeley Data: 10.17632/sfbpt6sjb3.1,CC BY 4.0
3296.17,0.000108196,alpha,160,PVDF,Mendeley Data: 10.17632/sfbpt6sjb3.1,CC BY 4.0
3294.237,0.000103521,alpha,160,PVDF,Mendeley Data: 10.17632/sfbpt6sjb3.1,CC BY 4.0
3292.31,9.63355e-05,alpha,160,PVDF,Mendeley Data: 10.17632/sfbpt6sjb3.1,CC BY 4.0
3290.38,8.05875e-05,alpha,160,PVDF,Mendeley Data: 10.17632/sfbpt6sjb3.1,CC BY 4.0
3288.45,6.02425e-05,alpha,160,PVDF,Mendeley Data: 10.17632/sfbpt6sjb3.1,CC BY 4.0
3286.52,4.07127e-05,alpha,160,PVDF,Mendeley Data: 10.17632/sfbpt6sjb3.1,CC BY 4.0
3284.59,2.111e-05,alpha,160,PVDF,Mendeley Data: 10.17632/sfbpt6sjb3.1,CC BY 4.0
3282.66,8.36766e-06,alpha,160,PVDF,Mendeley Data: 10.17632/sfbpt6sjb3.1,CC BY 4.0
3280.74,7.88348e-07,alpha,160,PVDF,Mendeley Data: 10.17632/sfbpt6sjb3.1,CC BY 4.0
3278.81,-4.98053e-07,alpha,160,PVDF,Mendeley Data: 10.17632/sfbpt6sjb3.1,CC BY 4.0
3276.88,-1.86411e-06,alpha,160,PVDF,Mendeley Data: 10.17632/sfbpt6sjb3.1,CC BY 4.0
3274.95,-3.87671e-06,alpha,160,PVDF,Mendeley Data: 10.17632/sfbpt6sjb3.1,CC BY 4.0
3273.02,-2.42189e-06,alpha,160,PVDF,Mendeley Data: 10.17632/sfbpt6sjb3.1,CC BY 4.0
3271.09,0.0,alpha,160,PVDF,Mendeley Data: 10.17632/sfbpt6sjb3.1,CC BY 4.0
3269.16,-7.29102e-07,alpha,160,PVDF,Mendeley Data: 10.17632/sfbpt6sjb3.1,CC BY 4.0
3267.24,-9.77421e-06,alpha,160,PVDF,Mendeley Data: 10.17632/sfbpt6sjb3.1,CC BY 4.0
3265.31,-2.75285e-05,alpha,160,PVDF,Mendeley Data: 10.17632/sfbpt6sjb3.1,CC BY 4.0
3263.38,-4.76934e-05,alpha,160,PVDF,Mendeley Data: 10.17632/sfbpt6sjb3.1,CC BY 4.0
3261.45,-6.59159e-05,alpha,160,PVDF,Mendeley Data: 10.17632/sfbpt6sjb3.1,CC BY 4.0
3259.52,-7.81688e-05,alpha,160,PVDF,Mendeley Data: 10.17632/sfbpt6sjb3.1,CC BY 4.0
3257.59,-8.21187e-05,alpha,160,PVDF,Mendeley Data: 10.17632/sfbpt6sjb3.1,CC BY 4.0
3255.66,-7.91382e-05,alpha,160,PVDF,Mendeley Data: 10.17632/sfbpt6sjb3.1,CC BY 4.0
3253.73,-7.52725e-05,alpha,160,PVDF,Mendeley Data: 10.17632/sfbpt6sjb3.1,CC BY 4.0
3251.81,-7.4308e-05,alpha,160,PVDF,Mendeley Data: 10.17632/sfbpt6sjb3.1,CC BY 4.0
3249.88,-8.69583e-05,alpha,160,PVDF,Mendeley Data: 10.17632/sfbpt6sjb3.1,CC BY 4.0
3247.95,-0.00010283,alpha,160,PVDF,Mendeley Data: 10.17632/sfbpt6sjb3.1,CC BY 4.0
3246.02,-0.000117251,alpha,160,PVDF,Mendeley Data: 10.17632/sfbpt6sjb3.1,CC BY 4.0
3244.09,-0.000123857,alpha,160,PVDF,Mendeley Data: 10.17632/sfbpt6sjb3.1,CC BY 4.0
3242.16,-0.000126434,alpha,160,PVDF,Mendeley Data: 10.17632/sfbpt6sjb3.1,CC BY 4.0
3240.23,-0.000121843,alpha,160,PVDF,Mendeley Data: 10.17632/sfbpt6sjb3.1,CC BY 4.0
3238.3,-0.00011991,alpha,160,PVDF,Mendeley Data: 10.17632/sfbpt6sjb3.1,CC BY 4.0
3236.38,-0.000118945,alpha,160,PVDF,Mendeley Data: 10.17632/sfbpt6sjb3.1,CC BY 4.0
3234.45,-0.00011919,alpha,160,PVDF,Mendeley Data: 10.17632/sfbpt6sjb3.1,CC BY 4.0
3232.52,-0.000117664,alpha,160,PVDF,Mendeley Data: 10.17632/sfbpt6sjb3.1,CC BY 4.0
3230.59,-0.00011404,alpha,160,PVDF,Mendeley Data: 10.17632/sfbpt6sjb3.1,CC BY 4.0
3228.66,-0.000102272,alpha,160,PVDF,Mendeley Data: 10.17632/sfbpt6sjb3.1,CC BY 4.0
3226.73,-9.13897e-05,alpha,160,PVDF,Mendeley Data: 10.17632/sfbpt6sjb3.1,CC BY 4.0
3224.8,-7.97009e-05,alpha,160,PVDF,Mendeley Data: 10.17632/sfbpt6sjb3.1,CC BY 4.0
3222.87,-6.95431e-05,alpha,160,PVDF,Mendeley Data: 10.17632/sfbpt6sjb3.1,CC BY 4.0
3220.95,-5.74487e-05,alpha,160,PVDF,Mendeley Data: 10.17632/sfbpt6sjb3.1,CC BY 4.0
3219.02,-4.13175e-05,alpha,160,PVDF,Mendeley Data: 10.17632/sfbpt6sjb3.1,CC BY 4.0
3217.09,-2.13884e-05,alpha,160,PVDF,Mendeley Data: 10.17632/sfbpt6sjb3.1,CC BY 4.0
3215.16,0.0,alpha,160,PVDF,Mendeley Data: 10.17632/sfbpt6sjb3.1,CC BY 4.0
3213.23,-2.88123e-05,alpha,160,PVDF,Mendeley Data: 10.17632/sfbpt6sjb3.1,CC BY 4.0
3211.3,-5.68068e-05,alpha,160,PVDF,Mendeley Data: 10.17632/sfbpt6sjb3.1,CC BY 4.0
3209.37,-8.14053e-05,alpha,160,PVDF,Mendeley Data: 10.17632/sfbpt6sjb3.1,CC BY 4.0
3207.45,-0.00010866,alpha,160,PVDF,Mendeley Data: 10.17632/sfbpt6sjb3.1,CC BY 4.0
3205.52,-0.000141716,alpha,160,PVDF,Mendeley Data: 10.17632/sfbpt6sjb3.1,CC BY 4.0
3203.59,-0.00017186,alpha,160,PVDF,Mendeley Data: 10.17632/sfbpt6sjb3.1,CC BY 4.0
3201.66,-0.000206027,alpha,160,PVDF,Mendeley Data: 10.17632/sfbpt6sjb3.1,CC BY 4.0
3199.73,-0.000231238,alpha,160,PVDF,Mendeley Data: 10.17632/sfbpt6sjb3.1,CC BY 4.0
3197.8,-0.00025129,alpha,160,PVDF,Mendeley Data: 10.17632/sfbpt6sjb3.1,CC BY 4.0
3195.87,-0.000260381,alpha,160,PVDF,Mendeley Data: 10.17632/sfbpt6sjb3.1,CC BY 4.0
3193.94,-0.000261978,alpha,160,PVDF,Mendeley Data: 10.17632/sfbpt6sjb3.1,CC BY 4.0
3192.02,-0.000258986,alpha,160,PVDF,Mendeley Data: 10.17632/sfbpt6sjb3.1,CC BY 4.0
3190.09,-0.000258659,alpha,160,PVDF,Mendeley Data: 10.17632/sfbpt6sjb3.1,CC BY 4.0
3188.16,-0.000265026,alpha,160,PVDF,Mendeley Data: 10.17632/sfbpt6sjb3.1,CC BY 4.0
3186.23,-0.000271719,alpha,160,PVDF,Mendeley Data: 10.17632/sfbpt6sjb3.1,CC BY 4.0
3184.3,-0.000271483,alpha,160,PVDF,Mendeley Data: 10.17632/sfbpt6sjb3.1,CC BY 4.0
3182.37,-0.000262304,alpha,160,PVDF,Mendeley Data: 10.17632/sfbpt6sjb3.1,CC BY 4.0
3180.44,-0.000238701,alpha,160,PVDF,Mendeley Data: 10.17632/sfbpt6sjb3.1,CC BY 4.0
3178.51,-0.000209053,alpha,160,PVDF,Mendeley Data: 10.17632/sfbpt6sjb3.1,CC BY 4.0
3176.59,-0.000178837,alpha,160,PVDF,Mendeley Data: 10.17632/sfbpt6sjb3.1,CC BY 4.0
3174.66,-0.000150957,alpha,160,PVDF,Mendeley Data: 10.17632/sfbpt6sjb3.1,CC BY 4.0
3172.73,-0.000128312,alpha,160,PVDF,Mendeley Data: 10.17632/sfbpt6sjb3.1,CC BY 4.0
3170.8,-0.000114936,alpha,160,PVDF,Mendeley Data: 10.17632/sfbpt6sjb3.1,CC BY 4.0
3168.87,-0.000106477,alpha,160,PVDF,Mendeley Data: 10.17632/sfbpt6sjb3.1,CC BY 4.0
3166.94,-9.7452e-05,alpha,160,PVDF,Mendeley Data: 10.17632/sfbpt6sjb3.1,CC BY 4.0
3165.01,-8.35048e-05,alpha,160,PVDF,Mendeley Data: 10.17632/sfbpt6sjb3.1,CC BY 4.0
3163.08,-6.29398e-05,alpha,160,PVDF,Mendeley Data: 10.17632/sfbpt6sjb3.1,CC BY 4.0
3161.16,-3.4623e-05,alpha,160,PVDF,Mendeley Data: 10.17632/sfbpt6sjb3.1,CC BY 4.0
3159.23,0.0,alpha,160,PVDF,Mendeley Data: 10.17632/sfbpt6sjb3.1,CC BY 4.0
3157.3,-5.10854e-05,alpha,160,PVDF,Mendeley Data: 10.17632/sfbpt6sjb3.1,CC BY 4.0
3155.37,-9.01301e-05,alpha,160,PVDF,Mendeley Data: 10.17632/sfbpt6sjb3.1,CC BY 4.0
3153.44,-0.000115611,alpha,160,PVDF,Mendeley Data: 10.17632/sfbpt6sjb3.1,CC BY 4.0
3151.51,-0.000138983,alpha,160,PVDF,Mendeley Data: 10.17632/sfbpt6sjb3.1,CC BY 4.0
3149.58,-0.000161048,alpha,160,PVDF,Mendeley Data: 10.17632/sfbpt6sjb3.1,CC BY 4.0
3147.66,-0.000181329,alpha,160,PVDF,Mendeley Data: 10.17632/sfbpt6sjb3.1,CC BY 4.0
3145.73,-0.000198787,alpha,160,PVDF,Mendeley Data: 10.17632/sfbpt6sjb3.1,CC BY 4.0
3143.8,-0.000213512,alpha,160,PVDF,Mendeley Data: 10.17632/sfbpt6sjb3.1,CC BY 4.0
3141.87,-0.000231219,alpha,160,PVDF,Mendeley Data: 10.17632/sfbpt6sjb3.1,CC BY 4.0
3139.94,-0.000254161,alpha,160,PVDF,Mendeley Data: 10.17632/sfbpt6sjb3.1,CC BY 4.0
3138.01,-0.000280235,alpha,160,PVDF,Mendeley Data: 10.17632/sfbpt6sjb3.1,CC BY 4.0
3136.08,-0.000305978,alpha,160,PVDF,Mendeley Data: 10.17632/sfbpt6sjb3.1,CC BY 4.0
3134.15,-0.000328253,alpha,160,PVDF,Mendeley Data: 10.17632/sfbpt6sjb3.1,CC BY 4.0
3132.23,-0.000344253,alpha,160,PVDF,Mendeley Data: 10.17632/sfbpt6sjb3.1,CC BY 4.0
3130.3,-0.000356882,alpha,160,PVDF,Mendeley Data: 10.17632/sfbpt6sjb3.1,CC BY 4.0
3128.37,-0.000369276,alpha,160,PVDF,Mendeley Data: 10.17632/sfbpt6sjb3.1,CC BY 4.0
3126.44,-0.000377413,alpha,160,PVDF,Mendeley Data: 10.17632/sfbpt6sjb3.1,CC BY 4.0
3124.51,-0.000383961,alpha,160,PVDF,Mendeley Data: 10.17632/sfbpt6sjb3.1,CC BY 4.0
3122.58,-0.0003878,alpha,160,PVDF,Mendeley Data: 10.17632/sfbpt6sjb3.1,CC BY 4.0
3120.65,-0.000391741,alpha,160,PVDF,Mendeley Data: 10.17632/sfbpt6sjb3.1,CC BY 4.0
3118.72,-0.000389553,alpha,160,PVDF,Mendeley Data: 10.17632/sfbpt6sjb3.1,CC BY 4.0
3116.8,-0.00037767,alpha,160,PVDF,Mendeley Data: 10.17632/sfbpt6sjb3.1,CC BY 4.0
3114.87,-0.00035094,alpha,160,PVDF,Mendeley Data: 10.17632/sfbpt6sjb3.1,CC BY 4.0
3112.94,-0.000307769,alpha,160,PVDF,Mendeley Data: 10.17632/sfbpt6sjb3.1,CC BY 4.0
3111.01,-0.00024913,alpha,160,PVDF,Mendeley Data: 10.17632/sfbpt6sjb3.1,CC BY 4.0
3109.08,-0.000177342,alpha,160,PVDF,Mendeley Data: 10.17632/sfbpt6sjb3.1,CC BY 4.0
3107.15,-9.89878e-05,alpha,160,PVDF,Mendeley Data: 10.17632/sfbpt6sjb3.1,CC BY 4.0
3105.22,-3.9382e-05,alpha,160,PVDF,Mendeley Data: 10.17632/sfbpt6sjb3.1,CC BY 4.0
3103.29,0.0,alpha,160,PVDF,Mendeley Data: 10.17632/sfbpt6sjb3.1,CC BY 4.0
3101.37,-8.07924e-05,alpha,160,PVDF,Mendeley Data: 10.17632/sfbpt6sjb3.1,CC BY 4.0
3099.44,-0.000155837,alpha,160,PVDF,Mendeley Data: 10.17632/sfbpt6sjb3.1,CC BY 4.0
3097.51,-0.000221674,alpha,160,PVDF,Mendeley Data: 10.17632/sfbpt6sjb3.1,CC BY 4.0
3095.58,-0.000274049,alpha,160,PVDF,Mendeley Data: 10.17632/sfbpt6sjb3.1,CC BY 4.0
3093.65,-0.000315882,alpha,160,PVDF,Mendeley Data: 10.17632/sfbpt6sjb3.1,CC BY 4.0
3091.72,-0.000353233,alpha,160,PVDF,Mendeley Data: 10.17632/sfbpt6sjb3.1,CC BY 4.0
3089.79,-0.000396754,alpha,160,PVDF,Mendeley Data: 10.17632/sfbpt6sjb3.1,CC BY 4.0
3087.87,-0.000449928,alpha,160,PVDF,Mendeley Data: 10.17632/sfbpt6sjb3.1,CC BY 4.0
3085.94,-0.000513109,alpha,160,PVDF,Mendeley Data: 10.17632/sfbpt6sjb3.1,CC BY 4.0
3084.01,-0.000577916,alpha,160,PVDF,Mendeley Data: 10.17632/sfbpt6sjb3.1,CC BY 4.0
3082.08,-0.000631581,alpha,160,PVDF,Mendeley Data: 10.17632/sfbpt6sjb3.1,CC BY 4.0
3080.15,-0.000667916,alpha,160,PVDF,Mendeley Data: 10.17632/sfbpt6sjb3.1,CC BY 4.0
3078.22,-0.000679038,alpha,160,PVDF,Mendeley Data: 10.17632/sfbpt6sjb3.1,CC BY 4.0
3076.29,-0.000673122,alpha,160,PVDF,Mendeley Data: 10.17632/sfbpt6sjb3.1,CC BY 4.0
3074.36,-0.000665112,alpha,160,PVDF,Mendeley Data: 10.17632/sfbpt6sjb3.1,CC BY 4.0
3072.44,-0.000662676,alpha,160,PVDF,Mendeley Data: 10.17632/sfbpt6sjb3.1,CC BY 4.0
3070.51,-0.000661796,alpha,160,PVDF,Mendeley Data: 10.17632/sfbpt6sjb3.1,CC BY 4.0
3068.58,-0.000655166,alpha,160,PVDF,Mendeley Data: 10.17632/sfbpt6sjb3.1,CC BY 4.0
3066.65,-0.000635094,alpha,160,PVDF,Mendeley Data: 10.17632/sfbpt6sjb3.1,CC BY 4.0
3064.72,-0.000596576,alpha,160,PVDF,Mendeley Data: 10.17632/sfbpt6sjb3.1,CC BY 4.0
3062.79,-0.000542851,alpha,160,PVDF,Mendeley Data: 10.17632/sfbpt6sjb3.1,CC BY 4.0
[...]
871.777,0.0876364,gamma,160,PVDF,Mendeley Data: 10.17632/sfbpt6sjb3.1,CC BY 4.0
869.848,0.058183,gamma,160,PVDF,Mendeley Data: 10.17632/sfbpt6sjb3.1,CC BY 4.0
867.92,0.0402063,gamma,160,PVDF,Mendeley Data: 10.17632/sfbpt6sjb3.1,CC BY 4.0
865.991,0.0297718,gamma,160,PVDF,Mendeley Data: 10.17632/sfbpt6sjb3.1,CC BY 4.0
864.062,0.0235096,gamma,160,PVDF,Mendeley Data: 10.17632/sfbpt6sjb3.1,CC BY 4.0
862.133,0.0195777,gamma,160,PVDF,Mendeley Data: 10.17632/sfbpt6sjb3.1,CC BY 4.0
860.205,0.0172603,gamma,160,PVDF,Mendeley Data: 10.17632/sfbpt6sjb3.1,CC BY 4.0
858.276,0.0160274,gamma,160,PVDF,Mendeley Data: 10.17632/sfbpt6sjb3.1,CC BY 4.0
856.347,0.0151426,gamma,160,PVDF,Mendeley Data: 10.17632/sfbpt6sjb3.1,CC BY 4.0
854.419,0.0138832,gamma,160,PVDF,Mendeley Data: 10.17632/sfbpt6sjb3.1,CC BY 4.0
852.4899,0.0118342,gamma,160,PVDF,Mendeley Data: 10.17632/sfbpt6sjb3.1,CC BY 4.0
850.561,0.00895407,gamma,160,PVDF,Mendeley Data: 10.17632/sfbpt6sjb3.1,CC BY 4.0
848.632,0.0057696,gamma,160,PVDF,Mendeley Data: 10.17632/sfbpt6sjb3.1,CC BY 4.0
846.704,0.00357417,gamma,160,PVDF,Mendeley Data: 10.17632/sfbpt6sjb3.1,CC BY 4.0
844.775,0.00447392,gamma,160,PVDF,Mendeley Data: 10.17632/sfbpt6sjb3.1,CC BY 4.0
842.846,0.0113255,gamma,160,PVDF,Mendeley Data: 10.17632/sfbpt6sjb3.1,CC BY 4.0
840.918,0.0271035,gamma,160,PVDF,Mendeley Data: 10.17632/sfbpt6sjb3.1,CC BY 4.0
838.989,0.0519711,gamma,160,PVDF,Mendeley Data: 10.17632/sfbpt6sjb3.1,CC BY 4.0
837.06,0.0795905,gamma,160,PVDF,Mendeley Data: 10.17632/sfbpt6sjb3.1,CC BY 4.0
835.132,0.100046,gamma,160,PVDF,Mendeley Data: 10.17632/sfbpt6sjb3.1,CC BY 4.0
833.2028,0.1069,gamma,160,PVDF,Mendeley Data: 10.17632/sfbpt6sjb3.1,CC BY 4.0
831.274,0.100012,gamma,160,PVDF,Mendeley Data: 10.17632/sfbpt6sjb3.1,CC BY 4.0
829.345,0.0849429,gamma,160,PVDF,Mendeley Data: 10.17632/sfbpt6sjb3.1,CC BY 4.0
827.417,0.0689133,gamma,160,PVDF,Mendeley Data: 10.17632/sfbpt6sjb3.1,CC BY 4.0
825.488,0.0559002,gamma,160,PVDF,Mendeley Data: 10.17632/sfbpt6sjb3.1,CC BY 4.0
823.559,0.0461471,gamma,160,PVDF,Mendeley Data: 10.17632/sfbpt6sjb3.1,CC BY 4.0
821.631,0.0388549,gamma,160,PVDF,Mendeley Data: 10.17632/sfbpt6sjb3.1,CC BY 4.0
819.702,0.0340088,gamma,160,PVDF,Mendeley Data: 10.17632/sfbpt6sjb3.1,CC BY 4.0
817.773,0.0322465,gamma,160,PVDF,Mendeley Data: 10.17632/sfbpt6sjb3.1,CC BY 4.0
815.844,0.0337772,gamma,160,PVDF,Mendeley Data: 10.17632/sfbpt6sjb3.1,CC BY 4.0
813.9157,0.03725,gamma,160,PVDF,Mendeley Data: 10.17632/sfbpt6sjb3.1,CC BY 4.0
811.987,0.0395816,gamma,160,PVDF,Mendeley Data: 10.17632/sfbpt6sjb3.1,CC BY 4.0
810.058,0.0380001,gamma,160,PVDF,Mendeley Data: 10.17632/sfbpt6sjb3.1,CC BY 4.0
808.13,0.0327636,gamma,160,PVDF,Mendeley Data: 10.17632/sfbpt6sjb3.1,CC BY 4.0
806.201,0.0266478,gamma,160,PVDF,Mendeley Data: 10.17632/sfbpt6sjb3.1,CC BY 4.0
804.272,0.0218503,gamma,160,PVDF,Mendeley Data: 10.17632/sfbpt6sjb3.1,CC BY 4.0
802.343,0.0186694,gamma,160,PVDF,Mendeley Data: 10.17632/sfbpt6sjb3.1,CC BY 4.0
800.415,0.0164701,gamma,160,PVDF,Mendeley Data: 10.17632/sfbpt6sjb3.1,CC BY 4.0
798.486,0.0147013,gamma,160,PVDF,Mendeley Data: 10.17632/sfbpt6sjb3.1,CC BY 4.0
796.557,0.0131339,gamma,160,PVDF,Mendeley Data: 10.17632/sfbpt6sjb3.1,CC BY 4.0
794.6286,0.0117502,gamma,160,PVDF,Mendeley Data: 10.17632/sfbpt6sjb3.1,CC BY 4.0
792.7,0.0103653,gamma,160,PVDF,Mendeley Data: 10.17632/sfbpt6sjb3.1,CC BY 4.0
790.771,0.00843645,gamma,160,PVDF,Mendeley Data: 10.17632/sfbpt6sjb3.1,CC BY 4.0
788.842,0.00571074,gamma,160,PVDF,Mendeley Data: 10.17632/sfbpt6sjb3.1,CC BY 4.0
786.914,0.00271154,gamma,160,PVDF,Mendeley Data: 10.17632/sfbpt6sjb3.1,CC BY 4.0
784.985,0.000229788,gamma,160,PVDF,Mendeley Data: 10.17632/sfbpt6sjb3.1,CC BY 4.0
783.056,-0.00131164,gamma,160,PVDF,Mendeley Data: 10.17632/sfbpt6sjb3.1,CC BY 4.0
781.128,-0.00182744,gamma,160,PVDF,Mendeley Data: 10.17632/sfbpt6sjb3.1,CC BY 4.0
779.199,-0.00151943,gamma,160,PVDF,Mendeley Data: 10.17632/sfbpt6sjb3.1,CC BY 4.0
777.2702,-0.000349633,gamma,160,PVDF,Mendeley Data: 10.17632/sfbpt6sjb3.1,CC BY 4.0
775.341,0.00118114,gamma,160,PVDF,Mendeley Data: 10.17632/sfbpt6sjb3.1,CC BY 4.0
773.413,0.00227839,gamma,160,PVDF,Mendeley Data: 10.17632/sfbpt6sjb3.1,CC BY 4.0
771.484,0.00235325,gamma,160,PVDF,Mendeley Data: 10.17632/sfbpt6sjb3.1,CC BY 4.0
769.555,0.00142868,gamma,160,PVDF,Mendeley Data: 10.17632/sfbpt6sjb3.1,CC BY 4.0
767.627,-3.58981e-05,gamma,160,PVDF,Mendeley Data: 10.17632/sfbpt6sjb3.1,CC BY 4.0
765.698,-0.00140926,gamma,160,PVDF,Mendeley Data: 10.17632/sfbpt6sjb3.1,CC BY 4.0
763.769,-0.00208089,gamma,160,PVDF,Mendeley Data: 10.17632/sfbpt6sjb3.1,CC BY 4.0
761.841,-0.00195143,gamma,160,PVDF,Mendeley Data: 10.17632/sfbpt6sjb3.1,CC BY 4.0
759.912,-0.00188674,gamma,160,PVDF,Mendeley Data: 10.17632/sfbpt6sjb3.1,CC BY 4.0
757.9831,-0.00263559,gamma,160,PVDF,Mendeley Data: 10.17632/sfbpt6sjb3.1,CC BY 4.0
756.054,-0.00384859,gamma,160,PVDF,Mendeley Data: 10.17632/sfbpt6sjb3.1,CC BY 4.0
754.126,-0.00495846,gamma,160,PVDF,Mendeley Data: 10.17632/sfbpt6sjb3.1,CC BY 4.0
752.197,-0.00578964,gamma,160,PVDF,Mendeley Data: 10.17632/sfbpt6sjb3.1,CC BY 4.0
750.268,-0.0063583,gamma,160,PVDF,Mendeley Data: 10.17632/sfbpt6sjb3.1,CC BY 4.0
748.34,-0.00670372,gamma,160,PVDF,Mendeley Data: 10.17632/sfbpt6sjb3.1,CC BY 4.0
746.411,-0.00687649,gamma,160,PVDF,Mendeley Data: 10.17632/sfbpt6sjb3.1,CC BY 4.0
744.482,-0.00694089,gamma,160,PVDF,Mendeley Data: 10.17632/sfbpt6sjb3.1,CC BY 4.0
742.553,-0.00693877,gamma,160,PVDF,Mendeley Data: 10.17632/sfbpt6sjb3.1,CC BY 4.0
740.625,-0.00687027,gamma,160,PVDF,Mendeley Data: 10.17632/sfbpt6sjb3.1,CC BY 4.0
738.696,-0.00669553,gamma,160,PVDF,Mendeley Data: 10.17632/sfbpt6sjb3.1,CC BY 4.0
736.767,-0.00638437,gamma,160,PVDF,Mendeley Data: 10.17632/sfbpt6sjb3.1,CC BY 4.0
734.839,-0.00595775,gamma,160,PVDF,Mendeley Data: 10.17632/sfbpt6sjb3.1,CC BY 4.0
732.91,-0.00546497,gamma,160,PVDF,Mendeley Data: 10.17632/sfbpt6sjb3.1,CC BY 4.0
730.981,-0.0049837,gamma,160,PVDF,Mendeley Data: 10.17632/sfbpt6sjb3.1,CC BY 4.0
729.052,-0.00457107,gamma,160,PVDF,Mendeley Data: 10.17632/sfbpt6sjb3.1,CC BY 4.0
727.124,-0.0042228,gamma,160,PVDF,Mendeley Data: 10.17632/sfbpt6sjb3.1,CC BY 4.0
725.195,-0.00394486,gamma,160,PVDF,Mendeley Data: 10.17632/sfbpt6sjb3.1,CC BY 4.0
723.266,-0.00377999,gamma,160,PVDF,Mendeley Data: 10.17632/sfbpt6sjb3.1,CC BY 4.0
721.338,-0.00372296,gamma,160,PVDF,Mendeley Data: 10.17632/sfbpt6sjb3.1,CC BY 4.0
719.4089,-0.00373224,gamma,160,PVDF,Mendeley Data: 10.17632/sfbpt6sjb3.1,CC BY 4.0
717.48,-0.00375838,gamma,160,PVDF,Mendeley Data: 10.17632/sfbpt6sjb3.1,CC BY 4.0
715.551,-0.00374819,gamma,160,PVDF,Mendeley Data: 10.17632/sfbpt6sjb3.1,CC BY 4.0
713.623,-0.00365871,gamma,160,PVDF,Mendeley Data: 10.17632/sfbpt6sjb3.1,CC BY 4.0
711.694,-0.00347445,gamma,160,PVDF,Mendeley Data: 10.17632/sfbpt6sjb3.1,CC BY 4.0
709.765,-0.00320275,gamma,160,PVDF,Mendeley Data: 10.17632/sfbpt6sjb3.1,CC BY 4.0
707.837,-0.00286854,gamma,160,PVDF,Mendeley Data: 10.17632/sfbpt6sjb3.1,CC BY 4.0
705.908,-0.00249536,gamma,160,PVDF,Mendeley Data: 10.17632/sfbpt6sjb3.1,CC BY 4.0
703.979,-0.00211127,gamma,160,PVDF,Mendeley Data: 10.17632/sfbpt6sjb3.1,CC BY 4.0
702.051,-0.00173725,gamma,160,PVDF,Mendeley Data: 10.17632/sfbpt6sjb3.1,CC BY 4.0
700.1218,-0.00139263,gamma,160,PVDF,Mendeley Data: 10.17632/sfbpt6sjb3.1,CC BY 4.0
698.193,-0.00108895,gamma,160,PVDF,Mendeley Data: 10.17632/sfbpt6sjb3.1,CC BY 4.0
696.264,-0.000831203,gamma,160,PVDF,Mendeley Data: 10.17632/sfbpt6sjb3.1,CC BY 4.0
694.336,-0.000612614,gamma,160,PVDF,Mendeley Data: 10.17632/sfbpt6sjb3.1,CC BY 4.0
692.407,-0.000431794,gamma,160,PVDF,Mendeley Data: 10.17632/sfbpt6sjb3.1,CC BY 4.0
690.478,-0.000283932,gamma,160,PVDF,Mendeley Data: 10.17632/sfbpt6sjb3.1,CC BY 4.0
688.55,-0.000162319,gamma,160,PVDF,Mendeley Data: 10.17632/sfbpt6sjb3.1,CC BY 4.0
686.621,-4.61252e-05,gamma,160,PVDF,Mendeley Data: 10.17632/sfbpt6sjb3.1,CC BY 4.0
684.692,9.77789e-05,gamma,160,PVDF,Mendeley Data: 10.17632/sfbpt6sjb3.1,CC BY 4.0
682.763,0.000309065,gamma,160,PVDF,Mendeley Data: 10.17632/sfbpt6sjb3.1,CC BY 4.0
680.8347,0.000603397,gamma,160,PVDF,Mendeley Data: 10.17632/sfbpt6sjb3.1,CC BY 4.0
678.906,0.000969064,gamma,160,PVDF,Mendeley Data: 10.17632/sfbpt6sjb3.1,CC BY 4.0
676.977,0.0013694,gamma,160,PVDF,Mendeley Data: 10.17632/sfbpt6sjb3.1,CC BY 4.0
675.049,0.00175573,gamma,160,PVDF,Mendeley Data: 10.17632/sfbpt6sjb3.1,CC BY 4.0
673.12,0.0020887,gamma,160,PVDF,Mendeley Data: 10.17632/sfbpt6sjb3.1,CC BY 4.0
671.191,0.00234921,gamma,160,PVDF,Mendeley Data: 10.17632/sfbpt6sjb3.1,CC BY 4.0
669.262,0.00254226,gamma,160,PVDF,Mendeley Data: 10.17632/sfbpt6sjb3.1,CC BY 4.0
667.334,0.00269899,gamma,160,PVDF,Mendeley Data: 10.17632/sfbpt6sjb3.1,CC BY 4.0
665.405,0.00287151,gamma,160,PVDF,Mendeley Data: 10.17632/sfbpt6sjb3.1,CC BY 4.0
663.4763,0.00309903,gamma,160,PVDF,Mendeley Data: 10.17632/sfbpt6sjb3.1,CC BY 4.0
661.548,0.0033749,gamma,160,PVDF,Mendeley Data: 10.17632/sfbpt6sjb3.1,CC BY 4.0
659.619,0.00364599,gamma,160,PVDF,Mendeley Data: 10.17632/sfbpt6sjb3.1,CC BY 4.0
657.69,0.00382382,gamma,160,PVDF,Mendeley Data: 10.17632/sfbpt6sjb3.1,CC BY 4.0
655.761,0.0038192,gamma,160,PVDF,Mendeley Data: 10.17632/sfbpt6sjb3.1,CC BY 4.0
653.833,0.0035944,gamma,160,PVDF,Mendeley Data: 10.17632/sfbpt6sjb3.1,CC BY 4.0
651.904,0.00318465,gamma,160,PVDF,Mendeley Data: 10.17632/sfbpt6sjb3.1,CC BY 4.0
649.975,0.00268036,gamma,160,PVDF,Mendeley Data: 10.17632/sfbpt6sjb3.1,CC BY 4.0
648.047,0.00217523,gamma,160,PVDF,Mendeley Data: 10.17632/sfbpt6sjb3.1,CC BY 4.0
646.118,0.0017398,gamma,160,PVDF,Mendeley Data: 10.17632/sfbpt6sjb3.1,CC BY 4.0
644.1892,0.00140181,gamma,160,PVDF,Mendeley Data: 10.17632/sfbpt6sjb3.1,CC BY 4.0
642.26,0.00115255,gamma,160,PVDF,Mendeley Data: 10.17632/sfbpt6sjb3.1,CC BY 4.0
640.332,0.000955641,gamma,160,PVDF,Mendeley Data: 10.17632/sfbpt6sjb3.1,CC BY 4.0
638.403,0.000846912,gamma,160,PVDF,Mendeley Data: 10.17632/sfbpt6sjb3.1,CC BY 4.0
636.474,0.000711784,gamma,160,PVDF,Mendeley Data: 10.17632/sfbpt6sjb3.1,CC BY 4.0
634.546,0.000495324,gamma,160,PVDF,Mendeley Data: 10.17632/sfbpt6sjb3.1,CC BY 4.0
632.617,0.00022751,gamma,160,PVDF,Mendeley Data: 10.17632/sfbpt6sjb3.1,CC BY 4.0
630.688,-0.000132133,gamma,160,PVDF,Mendeley Data: 10.17632/sfbpt6sjb3.1,CC BY 4.0
628.76,-0.000598085,gamma,160,PVDF,Mendeley Data: 10.17632/sfbpt6sjb3.1,CC BY 4.0
626.831,-0.0010372,gamma,160,PVDF,Mendeley Data: 10.17632/sfbpt6sjb3.1,CC BY 4.0
624.9021,-0.00147622,gamma,160,PVDF,Mendeley Data: 10.17632/sfbpt6sjb3.1,CC BY 4.0
622.973,-0.00188566,gamma,160,PVDF,Mendeley Data: 10.17632/sfbpt6sjb3.1,CC BY 4.0
621.045,-0.00221413,gamma,160,PVDF,Mendeley Data: 10.17632/sfbpt6sjb3.1,CC BY 4.0
619.116,-0.00252365,gamma,160,PVDF,Mendeley Data: 10.17632/sfbpt6sjb3.1,CC BY 4.0
617.187,-0.00287322,gamma,160,PVDF,Mendeley Data: 10.17632/sfbpt6sjb3.1,CC BY 4.0
615.259,-0.003035,gamma,160,PVDF,Mendeley Data: 10.17632/sfbpt6sjb3.1,CC BY 4.0
613.33,-0.00261026,gamma,160,PVDF,Mendeley Data: 10.17632/sfbpt6sjb3.1,CC BY 4.0
611.401,-0.00171766,gamma,160,PVDF,Mendeley Data: 10.17632/sfbpt6sjb3.1,CC BY 4.0
609.472,-0.0010538,gamma,160,PVDF,Mendeley Data: 10.17632/sfbpt6sjb3.1,CC BY 4.0
607.544,-0.00106262,gamma,160,PVDF,Mendeley Data: 10.17632/sfbpt6sjb3.1,CC BY 4.0
605.615,-0.00160381,gamma,160,PVDF,Mendeley Data: 10.17632/sfbpt6sjb3.1,CC BY 4.0
603.686,-0.00229584,gamma,160,PVDF,Mendeley Data: 10.17632/sfbpt6sjb3.1,CC BY 4.0
601.758,-0.00289675,gamma,160,PVDF,Mendeley Data: 10.17632/sfbpt6sjb3.1,CC BY 4.0
599.829,-0.00333859,gamma,160,PVDF,Mendeley Data: 10.17632/sfbpt6sjb3.1,CC BY 4.0
597.9,-0.0036038,gamma,160,PVDF,Mendeley Data: 10.17632/sfbpt6sjb3.1,CC BY 4.0
595.971,-0.00375901,gamma,160,PVDF,Mendeley Data: 10.17632/sfbpt6sjb3.1,CC BY 4.0
594.043,-0.00388569,gamma,160,PVDF,Mendeley Data: 10.17632/sfbpt6sjb3.1,CC BY 4.0
592.114,-0.00398767,gamma,160,PVDF,Mendeley Data: 10.17632/sfbpt6sjb3.1,CC BY 4.0
590.185,-0.00407439,gamma,160,PVDF,Mendeley Data: 10.17632/sfbpt6sjb3.1,CC BY 4.0
588.257,-0.00416325,gamma,160,PVDF,Mendeley Data: 10.17632/sfbpt6sjb3.1,CC BY 4.0
586.3279,-0.00419792,gamma,160,PVDF,Mendeley Data: 10.17632/sfbpt6sjb3.1,CC BY 4.0
584.399,-0.00414166,gamma,160,PVDF,Mendeley Data: 10.17632/sfbpt6sjb3.1,CC BY 4.0
582.47,-0.00403215,gamma,160,PVDF,Mendeley Data: 10.17632/sfbpt6sjb3.1,CC BY 4.0
580.542,-0.00390719,gamma,160,PVDF,Mendeley Data: 10.17632/sfbpt6sjb3.1,CC BY 4.0
578.613,-0.00379171,gamma,160,PVDF,Mendeley Data: 10.17632/sfbpt6sjb3.1,CC BY 4.0
576.684,-0.00372516,gamma,160,PVDF,Mendeley Data: 10.17632/sfbpt6sjb3.1,CC BY 4.0
574.756,-0.00372498,gamma,160,PVDF,Mendeley Data: 10.17632/sfbpt6sjb3.1,CC BY 4.0
572.827,-0.00381791,gamma,160,PVDF,Mendeley Data: 10.17632/sfbpt6sjb3.1,CC BY 4.0
570.898,-0.00402996,gamma,160,PVDF,Mendeley Data: 10.17632/sfbpt6sjb3.1,CC BY 4.0
568.9695,-0.00426086,gamma,160,PVDF,Mendeley Data: 10.17632/sfbpt6sjb3.1,CC BY 4.0
567.041,-0.00435845,gamma,160,PVDF,Mendeley Data: 10.17632/sfbpt6sjb3.1,CC BY 4.0
565.112,-0.00427386,gamma,160,PVDF,Mendeley Data: 10.17632/sfbpt6sjb3.1,CC BY 4.0
563.183,-0.00402519,gamma,160,PVDF,Mendeley Data: 10.17632/sfbpt6sjb3.1,CC BY 4.0
561.255,-0.00360766,gamma,160,PVDF,Mendeley Data: 10.17632/sfbpt6sjb3.1,CC BY 4.0
559.326,-0.00304851,gamma,160,PVDF,Mendeley Data: 10.17632/sfbpt6sjb3.1,CC BY 4.0
557.397,-0.00240449,gamma,160,PVDF,Mendeley Data: 10.17632/sfbpt6sjb3.1,CC BY 4.0
555.469,-0.00172508,gamma,160,PVDF,Mendeley Data: 10.17632/sfbpt6sjb3.1,CC BY 4.0
553.54,-0.00108853,gamma,160,PVDF,Mendeley Data: 10.17632/sfbpt6sjb3.1,CC BY 4.0
551.611,-0.000619391,gamma,160,PVDF,Mendeley Data: 10.17632/sfbpt6sjb3.1,CC BY 4.0
549.6824,-0.000450445,gamma,160,PVDF,Mendeley Data: 10.17632/sfbpt6sjb3.1,CC BY 4.0
547.754,-0.000598635,gamma,160,PVDF,Mendeley Data: 10.17632/sfbpt6sjb3.1,CC BY 4.0
545.825,-0.000895905,gamma,160,PVDF,Mendeley Data: 10.17632/sfbpt6sjb3.1,CC BY 4.0
543.896,-0.00108593,gamma,160,PVDF,Mendeley Data: 10.17632/sfbpt6sjb3.1,CC BY 4.0
541.968,-0.00103299,gamma,160,PVDF,Mendeley Data: 10.17632/sfbpt6sjb3.1,CC BY 4.0
540.039,-0.000767448,gamma,160,PVDF,Mendeley Data: 10.17632/sfbpt6sjb3.1,CC BY 4.0
538.11,-0.000370096,gamma,160,PVDF,Mendeley Data: 10.17632/sfbpt6sjb3.1,CC BY 4.0
536.181,6.85021e-05,gamma,160,PVDF,Mendeley Data: 10.17632/sfbpt6sjb3.1,CC BY 4.0
534.253,0.00047283,gamma,160,PVDF,Mendeley Data: 10.17632/sfbpt6sjb3.1,CC BY 4.0
532.324,0.000915525,gamma,160,PVDF,Mendeley Data: 10.17632/sfbpt6sjb3.1,CC BY 4.0
530.3953,0.00159708,gamma,160,PVDF,Mendeley Data: 10.17632/sfbpt6sjb3.1,CC BY 4.0
528.467,0.00262799,gamma,160,PVDF,Mendeley Data: 10.17632/sfbpt6sjb3.1,CC BY 4.0
526.538,0.00406429,gamma,160,PVDF,Mendeley Data: 10.17632/sfbpt6sjb3.1,CC BY 4.0
524.609,0.00598956,gamma,160,PVDF,Mendeley Data: 10.17632/sfbpt6sjb3.1,CC BY 4.0
522.68,0.00848898,gamma,160,PVDF,Mendeley Data: 10.17632/sfbpt6sjb3.1,CC BY 4.0
520.752,0.0116367,gamma,160,PVDF,Mendeley Data: 10.17632/sfbpt6sjb3.1,CC BY 4.0
518.823,0.0154214,gamma,160,PVDF,Mendeley Data: 10.17632/sfbpt6sjb3.1,CC BY 4.0
516.894,0.019514,gamma,160,PVDF,Mendeley Data: 10.17632/sfbpt6sjb3.1,CC BY 4.0
514.966,0.0230208,gamma,160,PVDF,Mendeley Data: 10.17632/sfbpt6sjb3.1,CC BY 4.0
513.037,0.0243382,gamma,160,PVDF,Mendeley Data: 10.17632/sfbpt6sjb3.1,CC BY 4.0
511.1082,0.0219484,gamma,160,PVDF,Mendeley Data: 10.17632/sfbpt6sjb3.1,CC BY 4.0
509.179,0.0162595,gamma,160,PVDF,Mendeley Data: 10.17632/sfbpt6sjb3.1,CC BY 4.0
507.251,0.00988455,gamma,160,PVDF,Mendeley Data: 10.17632/sfbpt6sjb3.1,CC BY 4.0
505.322,0.00521562,gamma,160,PVDF,Mendeley Data: 10.17632/sfbpt6sjb3.1,CC BY 4.0
503.393,0.00268948,gamma,160,PVDF,Mendeley Data: 10.17632/sfbpt6sjb3.1,CC BY 4.0
501.465,0.00154761,gamma,160,PVDF,Mendeley Data: 10.17632/sfbpt6sjb3.1,CC BY 4.0
499.536,0.00109452,gamma,160,PVDF,Mendeley Data: 10.17632/sfbpt6sjb3.1,CC BY 4.0
497.607,0.00115924,gamma,160,PVDF,Mendeley Data: 10.17632/sfbpt6sjb3.1,CC BY 4.0
495.679,0.00202309,gamma,160,PVDF,Mendeley Data: 10.17632/sfbpt6sjb3.1,CC BY 4.0
493.75,0.00420359,gamma,160,PVDF,Mendeley Data: 10.17632/sfbpt6sjb3.1,CC BY 4.0
491.8211,0.008575,gamma,160,PVDF,Mendeley Data: 10.17632/sfbpt6sjb3.1,CC BY 4.0
489.892,0.0166696,gamma,160,PVDF,Mendeley Data: 10.17632/sfbpt6sjb3.1,CC BY 4.0
487.964,0.0298586,gamma,160,PVDF,Mendeley Data: 10.17632/sfbpt6sjb3.1,CC BY 4.0
486.035,0.0468351,gamma,160,PVDF,Mendeley Data: 10.17632/sfbpt6sjb3.1,CC BY 4.0
484.106,0.0616569,gamma,160,PVDF,Mendeley Data: 10.17632/sfbpt6sjb3.1,CC BY 4.0
482.178,0.0664246,gamma,160,PVDF,Mendeley Data: 10.17632/sfbpt6sjb3.1,CC BY 4.0
480.249,0.058326,gamma,160,PVDF,Mendeley Data: 10.17632/sfbpt6sjb3.1,CC BY 4.0
478.32,0.0422681,gamma,160,PVDF,Mendeley Data: 10.17632/sfbpt6sjb3.1,CC BY 4.0
476.391,0.0255616,gamma,160,PVDF,Mendeley Data: 10.17632/sfbpt6sjb3.1,CC BY 4.0
474.463,0.012613,gamma,160,PVDF,Mendeley Data: 10.17632/sfbpt6sjb3.1,CC BY 4.0
472.534,0.00424569,gamma,160,PVDF,Mendeley Data: 10.17632/sfbpt6sjb3.1,CC BY 4.0
470.605,-0.00045311,gamma,160,PVDF,Mendeley Data: 10.17632/sfbpt6sjb3.1,CC BY 4.0
468.677,-0.00277719,gamma,160,PVDF,Mendeley Data: 10.17632/sfbpt6sjb3.1,CC BY 4.0
466.748,-0.00379777,gamma,160,PVDF,Mendeley Data: 10.17632/sfbpt6sjb3.1,CC BY 4.0
464.819,-0.00412147,gamma,160,PVDF,Mendeley Data: 10.17632/sfbpt6sjb3.1,CC BY 4.0
462.89,-0.00402871,gamma,160,PVDF,Mendeley Data: 10.17632/sfbpt6sjb3.1,CC BY 4.0
460.962,-0.00367863,gamma,160,PVDF,Mendeley Data: 10.17632/sfbpt6sjb3.1,CC BY 4.0
459.033,-0.00322434,gamma,160,PVDF,Mendeley Data: 10.17632/sfbpt6sjb3.1,CC BY 4.0
457.104,-0.00281439,gamma,160,PVDF,Mendeley Data: 10.17632/sfbpt6sjb3.1,CC BY 4.0
455.1756,-0.00244798,gamma,160,PVDF,Mendeley Data: 10.17632/sfbpt6sjb3.1,CC BY 4.0
453.247,-0.00239981,gamma,160,PVDF,Mendeley Data: 10.17632/sfbpt6sjb3.1,CC BY 4.0
451.318,-0.00209721,gamma,160,PVDF,Mendeley Data: 10.17632/sfbpt6sjb3.1,CC BY 4.0
449.389,-0.00189789,gamma,160,PVDF,Mendeley Data: 10.17632/sfbpt6sjb3.1,CC BY 4.0
447.461,-0.0015163,gamma,160,PVDF,Mendeley Data: 10.17632/sfbpt6sjb3.1,CC BY 4.0
445.532,-0.000994484,gamma,160,PVDF,Mendeley Data: 10.17632/sfbpt6sjb3.1,CC BY 4.0
443.603,-0.00035729,gamma,160,PVDF,Mendeley Data: 10.17632/sfbpt6sjb3.1,CC BY 4.0
441.675,0.000341854,gamma,160,PVDF,Mendeley Data: 10.17632/sfbpt6sjb3.1,CC BY 4.0
439.746,0.00114706,gamma,160,PVDF,Mendeley Data: 10.17632/sfbpt6sjb3.1,CC BY 4.0
437.817,0.00201152,gamma,160,PVDF,Mendeley Data: 10.17632/sfbpt6sjb3.1,CC BY 4.0
435.8885,0.0027507,gamma,160,PVDF,Mendeley Data: 10.17632/sfbpt6sjb3.1,CC BY 4.0
433.96,0.00313208,gamma,160,PVDF,Mendeley Data: 10.17632/sfbpt6sjb3.1,CC BY 4.0
432.031,0.0030758,gamma,160,PVDF,Mendeley Data: 10.17632/sfbpt6sjb3.1,CC BY 4.0
430.102,0.00267558,gamma,160,PVDF,Mendeley Data: 10.17632/sfbpt6sjb3.1,CC BY 4.0
428.174,0.00198621,gamma,160,PVDF,Mendeley Data: 10.17632/sfbpt6sjb3.1,CC BY 4.0
426.245,0.00105451,gamma,160,PVDF,Mendeley Data: 10.17632/sfbpt6sjb3.1,CC BY 4.0
424.316,0.00012614,gamma,160,PVDF,Mendeley Data: 10.17632/sfbpt6sjb3.1,CC BY 4.0
422.388,-0.000546598,gamma,160,PVDF,Mendeley Data: 10.17632/sfbpt6sjb3.1,CC BY 4.0
420.459,-0.000974867,gamma,160,PVDF,Mendeley Data: 10.17632/sfbpt6sjb3.1,CC BY 4.0
418.53,-0.00124308,gamma,160,PVDF,Mendeley Data: 10.17632/sfbpt6sjb3.1,CC BY 4.0
416.6014,-0.00135579,gamma,160,PVDF,Mendeley Data: 10.17632/sfbpt6sjb3.1,CC BY 4.0
414.673,-0.00135441,gamma,160,PVDF,Mendeley Data: 10.17632/sfbpt6sjb3.1,CC BY 4.0
412.744,-0.0012918,gamma,160,PVDF,Mendeley Data: 10.17632/sfbpt6sjb3.1,CC BY 4.0
410.815,-0.00117091,gamma,160,PVDF,Mendeley Data: 10.17632/sfbpt6sjb3.1,CC BY 4.0
408.887,-0.000938544,gamma,160,PVDF,Mendeley Data: 10.17632/sfbpt6sjb3.1,CC BY 4.0
406.958,-0.00053418,gamma,160,PVDF,Mendeley Data: 10.17632/sfbpt6sjb3.1,CC BY 4.0
405.029,-9.29007e-05,gamma,160,PVDF,Mendeley Data: 10.17632/sfbpt6sjb3.1,CC BY 4.0
403.1,7.4206e-05,gamma,160,PVDF,Mendeley Data: 10.17632/sfbpt6sjb3.1,CC BY 4.0
401.172,4.02682e-05,gamma,160,PVDF,Mendeley Data: 10.17632/sfbpt6sjb3.1,CC BY 4.0
399.243,0.0,gamma,160,PVDF,Mendeley Data: 10.17632/sfbpt6sjb3.1,CC BY 4.0